ACC_x,ACC_y,ACC_z,ACC_net,PPG_Clean,PPG_Rate,PPG_Quality,PPG_Peaks,EDA_Clean,EDA_Tonic,EDA_Phasic,SCR_Onsets,SCR_Peaks,SCR_Height,SCR_Amplitude,SCR_RiseTime,SCR_Recovery,SCR_RecoveryTime,TEMP,label,subject_id
-60.21907211231512,-0.9999999947139722,21.700321814288973,64.01750239505867,15.17695916419436,48.0,0.5759996521416694,0.0,0.402338,0.40178834002963854,0.0005496599703558136,0.0,0.0,0.0,0.0,0.0,0.0,0.0,33.07,0.0,S01
-60.964064701182345,-0.9999898319563797,21.293792789665524,64.58361073773419,-0.29836767821129234,48.0,0.5759996521416694,0.0,0.402338,0.4019415920113028,0.00039640798869133837,0.0,0.0,0.0,0.0,0.0,0.0,0.0,33.09,0.0,S01
-60.997879745887765,-0.562671033778822,22.00055554429802,64.84660651447986,-33.08056817818727,48.0,0.5759996521416694,0.0,0.399775,0.40209596524025093,-0.002320965240256845,0.0,0.0,0.0,0.0,0.0,0.0,0.0,33.09,0.0,S01
-61.14651480161074,-1.0000505922241552,21.21299206027948,64.72933960515965,-3.1201099085368953,48.0,0.5759996521416694,0.0,0.401057,0.40225150684975136,-0.001194506849757152,0.0,0.0,0.0,0.0,0.0,0.0,0.0,33.09,0.0,S01
-61.00000384069183,-1.0000000013443446,22.103264606763528,64.88878774367504,29.087104483528368,48.0,0.8553780370677484,1.0,0.402338,0.40240822432212453,-7.022432213014203e-05,0.0,0.0,0.0,0.0,0.0,0.0,0.0,33.09,0.0,S01
-60.9980186435509,-1.0000000000000357,22.007236700719606,64.854273148656,15.596493195523133,48.0,0.8553780370677484,0.0,0.402338,0.40256608566812485,-0.00022808566813032444,0.0,0.0,0.0,0.0,0.0,0.0,0.0,33.09,0.0,S01
-61.452424689471464,-1.0,21.666343844209386,65.167714059883,-6.180744692961186,48.0,0.8553780370677484,0.0,0.404901,0.4027250439884284,0.002175956011566239,0.0,0.0,0.0,0.0,0.0,0.0,0.0,33.09,0.0,S01
-60.56312249694341,-1.0000000000000002,21.209785424097895,64.17746336772784,-38.71831549148493,48.0,0.8553780370677484,0.0,0.401057,0.4028850619917901,-0.001828061991795408,0.0,0.0,0.0,0.0,0.0,0.0,0.0,33.09,0.0,S01
-61.251604696988665,-1.0000000000000002,20.593601642872848,64.62859666263456,17.689606724231705,48.0,0.8553780370677484,0.0,0.403619,0.4030461150976823,0.0005728849023124828,0.0,0.0,0.0,0.0,0.0,0.0,0.0,33.09,0.0,S01
-60.26653318253085,-1.0000000000000002,21.561146151856594,64.01513918771725,24.53253833172529,48.0,0.535613950195694,1.0,0.401057,0.40320817312001106,-0.0021511731200161326,0.0,0.0,0.0,0.0,0.0,0.0,0.0,33.09,0.0,S01
-60.23020114735173,-1.0000000000000002,21.9953381957182,64.12855863493634,-9.55266512568958,53.553719008264466,0.535613950195694,0.0,0.402338,0.40337117885641216,-0.0010331788564170372,0.0,0.0,0.0,0.0,0.0,0.0,0.0,33.09,0.0,S01
-61.28367029898827,-1.000000000000002,20.644369592593442,64.67517484468591,-41.833081270559724,68.21052631578947,0.535613950195694,0.0,0.404901,0.4035350388576049,0.0013659611423905986,0.0,0.0,0.0,0.0,0.0,0.0,0.0,33.09,0.0,S01
-60.97116052123807,-1.0000000000743035,22.074767262081874,64.8519680887312,26.876459205662627,80.0,0.7974788939043224,1.0,0.404901,0.4036996416449329,0.0012013583550628717,0.0,0.0,0.0,0.0,0.0,0.0,0.0,33.09,0.0,S01
-61.000704417550644,-1.0000028027560006,21.96110790999565,64.84116135355208,24.818233910517943,75.71271080660004,0.7974788939043224,0.0,0.406182,0.403864897269186,0.002317102730810062,0.0,0.0,0.0,0.0,0.0,0.0,0.0,33.11,0.0,S01
-61.000000018715916,-1.1057202090139728,21.963374734277462,64.84298303735156,2.64515996733677,66.85922552719022,0.7974788939043224,0.0,0.402338,0.4040307615701527,-0.0016927615701563237,0.0,0.0,0.0,0.0,0.0,0.0,0.0,33.11,0.0,S01
-61.0000000000004,-0.9998112834663101,21.54499734634157,64.70074600231794,-30.106164192005505,58.18960989853581,0.7974788939043224,0.0,0.403619,0.4041972207113012,-0.0005782207113044521,0.0,0.0,0.0,0.0,0.0,0.0,0.0,33.11,0.0,S01
-60.99999999610219,-0.9999999949860374,22.106251414003214,64.88980159542452,-42.01631577544087,51.7296116232889,0.7974788939043224,0.0,0.404901,0.404364257369842,0.0005367426301550633,0.0,0.0,0.0,0.0,0.0,0.0,0.0,33.11,0.0,S01
-60.9998529789621,-0.9999999999998668,21.999811531967673,64.85347925051585,33.49677666231162,48.0,0.9250991801018106,1.0,0.402338,0.40453183522977487,-0.0021938352297775554,0.0,0.0,0.0,0.0,0.0,0.0,0.0,33.11,0.0,S01
-61.136433140830526,-1.0,22.007659190960588,64.98461756638038,22.866519657883302,45.80557079606497,0.9250991801018106,0.0,0.406182,0.4046998987238147,0.0014821012761829103,0.0,0.0,0.0,0.0,0.0,0.0,0.0,33.11,0.0,S01
-61.13711569501121,-1.0000000000000002,21.99722518067182,64.98172690190965,6.848157151219618,43.86724668849895,0.9250991801018106,0.0,0.402338,0.4048683727526661,-0.0025303727526683256,0.0,0.0,0.0,0.0,0.0,0.0,0.0,33.11,0.0,S01
-60.96342070094946,-1.0,22.13653989981073,64.86574644831327,-15.167738022546072,42.26319135410045,0.9250991801018106,0.0,0.407463,0.4050371654364487,0.0024258345635492884,0.0,0.0,0.0,0.0,0.0,0.0,0.0,33.11,0.0,S01
-61.10739283052408,-1.0,22.000002877604285,64.95470410338717,-58.82867055984671,41.04923731333043,0.9250991801018106,0.0,0.407463,0.40520618611655984,0.002256813883438272,0.0,0.0,0.0,0.0,0.0,0.0,0.0,33.11,0.0,S01
-61.10536799555304,-1.0,21.971716215008648,64.94322375201921,27.21408754267714,40.27508834913334,0.9250991801018106,0.0,0.403619,0.40537537555845765,-0.0017563755584593728,0.0,0.0,0.0,0.0,0.0,0.0,0.0,33.11,0.0,S01
-61.00960976548514,-1.0000000000000002,21.96413964752693,64.850566028315,36.76689585092467,40.0,0.5463464323884133,1.0,0.407463,0.40554471171896506,0.0019182882810334571,0.0,0.0,0.0,0.0,0.0,0.0,0.0,33.11,0.0,S01
-61.00984083666719,-1.0,22.1065658907255,64.89915973567341,14.958965688995937,40.70556309362279,0.5463464323884133,0.0,0.403619,0.4057141880275653,-0.0020951880275666595,0.0,0.0,0.0,0.0,0.0,0.0,0.0,33.11,0.0,S01
-60.98758139950912,-1.0000000000000002,21.610692644623384,64.7109505535356,-8.954329761562434,42.492917847025495,0.5463464323884133,0.0,0.407463,0.405883797769547,0.0015792022304518547,0.0,0.0,0.0,0.0,0.0,0.0,0.0,33.13,0.0,S01
-60.992205095627824,-1.0,21.633111050398632,64.72279796289719,-47.261729421089335,44.84304932735426,0.5463464323884133,0.0,0.407463,0.4060535367846394,0.0014094632153594513,0.0,0.0,0.0,0.0,0.0,0.0,0.0,33.13,0.0,S01
-61.002623156050106,-1.0,20.997347290691852,64.52293100258997,14.778451039086093,47.02194357366771,0.5463464323884133,0.0,0.403619,0.406223415320928,-0.002604415320929176,0.0,0.0,0.0,0.0,0.0,0.0,0.0,33.13,0.0,S01
-61.000000125419135,-1.0,21.71295728400038,64.75687244855143,33.79613741554382,48.0,0.6488574145823727,1.0,0.407463,0.40639345156273365,0.001069548437265106,0.0,0.0,0.0,0.0,0.0,0.0,0.0,33.13,0.0,S01
-61.002101936122486,-1.0,21.75097030684501,64.77160759093704,21.855071210856842,48.0,0.6488574145823727,0.0,0.404901,0.4065636498872504,-0.0016626498872518458,0.0,0.0,0.0,0.0,0.0,0.0,0.0,33.11,0.0,S01
-60.99021749296489,-1.0,21.035830956220583,64.52373837478613,-10.568186648852304,48.0,0.6488574145823727,0.0,0.406182,0.40673399133329285,-0.0005519913332944249,0.0,0.0,0.0,0.0,0.0,0.0,0.0,33.11,0.0,S01
-61.00015128826119,-1.0,21.47829913944542,64.67871203969862,-41.53078673456155,48.0,0.6488574145823727,0.0,0.410026,0.40690443933246206,0.003121560667536336,0.0,0.0,0.0,0.0,0.0,0.0,0.0,33.11,0.0,S01
-60.86382135681669,-1.0,21.02662151862152,64.40126988376745,10.799376813755174,48.0,0.6488574145823727,0.0,0.404901,0.4070749606985787,-0.0021739606985804088,0.0,0.0,0.0,0.0,0.0,0.0,0.0,33.11,0.0,S01
-60.999996326218515,-1.0000000000000002,21.746437256213177,64.76810237406288,33.83336928822505,48.0,0.6999663408166775,1.0,0.408745,0.4072455405052506,0.0014994594947474985,0.0,0.0,0.0,0.0,0.0,0.0,0.0,33.11,0.0,S01
-60.99787602325068,-1.0000000000000002,20.983291968908276,64.51386999088112,9.029102411709365,49.54838709677419,0.6999663408166775,0.0,0.404901,0.40741616948143017,-0.0025151694814323352,0.0,0.0,0.0,0.0,0.0,0.0,0.0,33.11,0.0,S01
-61.00976845945947,-1.0,22.119731240100087,64.90357738685223,-37.445711006270855,53.333333333333336,0.6999663408166775,0.0,0.410026,0.4075868283495751,0.0024391716504225027,0.0,0.0,0.0,0.0,0.0,0.0,0.0,33.11,0.0,S01
-61.000000259482235,-1.0,20.845681671443312,64.47125309782632,19.83603111730425,57.744360902255636,0.6999663408166775,0.0,0.410026,0.4077574996386064,0.002268500361390987,0.0,0.0,0.0,0.0,0.0,0.0,0.0,33.11,0.0,S01
-61.0000000000069,-1.0000000000000002,21.234059606223013,64.59787370619465,38.7537392134238,60.0,0.6986954425655321,1.0,0.406182,0.4079281978141414,-0.0017461978141442582,0.0,0.0,0.0,0.0,0.0,0.0,0.0,33.11,0.0,S01
-61.00000000000001,-1.0,21.537469441924067,64.69824255697996,17.91084649368218,58.89818098987992,0.6986954425655321,0.0,0.407463,0.4080989688737188,-0.0006359688737217504,0.0,0.0,0.0,0.0,0.0,0.0,0.0,33.11,0.0,S01
-61.00000000000001,-1.0000000000000002,22.07761119492482,64.88005021633592,-1.889829722827755,56.27876124538784,0.6986954425655321,0.0,0.407463,0.4082698532987339,-0.000806853298736777,0.0,0.0,0.0,0.0,0.0,0.0,0.0,33.11,0.0,S01
-61.0,-1.0000000000004068,21.26834864641439,64.60915302142133,-41.71872326617418,53.13579473730563,0.6986954425655321,0.0,0.410026,0.40844086732453155,0.0015851326754655775,0.0,0.0,0.0,0.0,0.0,0.0,0.0,33.11,0.0,S01
-61.00000000000001,-1.0000000153379953,22.073474286789477,64.87864261157313,-21.375483049844433,50.21640217511929,0.6986954425655321,0.0,0.411307,0.40861202695842447,0.0026949730415726184,0.0,0.0,0.0,0.0,0.0,0.0,0.0,33.09,0.0,S01
-61.00000000000042,-1.0005783738460072,21.4179131087527,64.65855054837172,40.43698724126033,48.0,0.914243423662646,1.0,0.407463,0.4087833842082501,-0.001320384208253061,0.0,0.0,0.0,0.0,0.0,0.0,0.0,33.09,0.0,S01
-61.00000001539869,-0.9636465550338051,22.112067013749016,64.89123303021908,26.60935177552873,46.14776270619597,0.914243423662646,0.0,0.408745,0.40895502971570385,-0.00021002971570690035,0.0,0.0,0.0,0.0,0.0,0.0,0.0,33.09,0.0,S01
-61.000580649757374,-1.0021660488057424,22.143408402373908,64.90304855760826,5.713374442815789,44.2696459575753,0.914243423662646,0.0,0.407463,0.40912705874212035,-0.0016640587421234898,0.0,0.0,0.0,0.0,0.0,0.0,0.0,33.09,0.0,S01
-60.963675819451346,-0.9902669651306222,21.551417411694473,64.66849302817,-23.220853273792574,42.57779955893163,0.914243423662646,0.0,0.407463,0.40929953714317574,-0.0018365371431788321,0.0,0.0,0.0,0.0,0.0,0.0,0.0,33.11,0.0,S01
-60.99999903409588,-0.9999997414847425,21.764234219504154,64.77408257014609,-67.65925790165451,41.224561526835615,0.914243423662646,0.0,0.412589,0.40947249175333156,0.003116508246665344,0.0,0.0,0.0,0.0,0.0,0.0,0.0,33.11,0.0,S01
-60.999958068181584,-0.9999999999927438,21.534218197173736,64.69712078356645,32.16380705038296,40.32767438861907,0.914243423662646,0.0,0.408745,0.40964593434525715,-0.0009009343452600729,0.0,0.0,0.0,0.0,0.0,0.0,0.0,33.11,0.0,S01
-61.696484702299344,-0.999999985290123,20.25339529736895,64.94348501322611,40.82616100025081,40.0,0.5168994215776574,1.0,0.408745,0.409819888631209,-0.001074888631211918,0.0,0.0,0.0,0.0,0.0,0.0,0.0,33.11,0.0,S01
-60.991261502211216,-0.9994453522987362,20.48934048982298,64.3486281466143,8.5499135171159,42.1978021978022,0.5168994215776574,0.0,0.408745,0.4099943775488521,-0.0012493775488550986,0.0,0.0,0.0,0.0,0.0,0.0,0.0,33.13,0.0,S01
-61.041039071426304,0.1297733857691818,20.989833838467153,64.54919377201784,-21.090647672223103,48.0,0.5168994215776574,0.0,0.407463,0.41016938914692747,-0.00270638914693056,0.0,0.0,0.0,0.0,0.0,0.0,0.0,33.13,0.0,S01
-60.99088234129023,-0.9999291409999912,20.8765131409728,64.47260183970661,-72.81864346233547,55.65217391304348,0.5168994215776574,0.0,0.411307,0.41034485771220475,0.0009621422877920983,0.0,0.0,0.0,0.0,0.0,0.0,0.0,33.13,0.0,S01
-60.963789355738434,-0.9637895960125576,20.92418378335459,64.4618799756556,25.892217833864187,60.0,0.8190044859202789,1.0,0.408745,0.4105206693037178,-0.0017756693037208325,0.0,0.0,0.0,0.0,0.0,0.0,0.0,33.13,0.0,S01
-60.99999903829031,-0.9999990382966819,20.740825286196827,64.43742479569272,12.237977410606122,60.0,0.8190044859202789,0.0,0.41387,0.41069668559847705,0.003173314401519937,0.0,0.0,0.0,0.0,0.0,0.0,0.0,33.13,0.0,S01
-60.99999999997446,-0.9999999999744587,21.030902871034673,64.5313789994273,-25.513385563958174,60.0,0.8190044859202789,0.0,0.410026,0.4108727738370717,-0.0008467738370746679,0.0,0.0,0.0,0.0,0.0,0.0,0.0,33.13,0.0,S01
-61.0,-0.9999999999999999,21.71970267130918,64.75913436828873,15.80197478365233,60.0,0.8190044859202789,0.0,0.408745,0.4110488184381463,-0.0023038184381490284,0.0,0.0,0.0,0.0,0.0,0.0,0.0,33.13,0.0,S01
-60.99999999971647,-1.0000000000217995,22.0794077595246,64.88066157937054,37.500494502637224,60.0,0.764083046401345,1.0,0.41387,0.41122470207349804,0.0026452979264993785,0.0,0.0,0.0,0.0,0.0,0.0,0.0,33.13,0.0,S01
-60.99998931019486,-1.0000008218986316,22.010227681364086,64.8571416273734,23.730225440064928,57.85714285714285,0.764083046401345,0.0,0.410026,0.4114002959052876,-0.001374295905290038,0.0,0.0,0.0,0.0,0.0,0.0,0.0,33.13,0.0,S01
-60.51521462600413,-1.0309874680471194,21.256207660386387,64.14811377189577,-0.5213560152838781,53.11475409836065,0.764083046401345,0.0,0.410026,0.4115754681480549,-0.0015494681480573468,0.0,0.0,0.0,0.0,0.0,0.0,0.0,33.13,0.0,S01
-62.3711242614502,-0.9909763630825023,19.569076840447593,65.37650911586509,-51.79231266915737,48.0,0.764083046401345,0.0,0.41387,0.4117500773736875,0.0021199226263100565,0.0,0.0,0.0,0.0,0.0,0.0,0.0,33.13,0.0,S01
-59.93350694596338,-0.48859994457802086,22.910648239897494,64.16511347702894,-16.080775529057643,43.78378378378379,0.764083046401345,0.0,0.412589,0.4119239749954457,0.0006650250045518617,0.0,0.0,0.0,0.0,0.0,0.0,0.0,33.13,0.0,S01
-60.309682928930215,-1.1226557267921111,23.237631466006988,64.64136235429258,40.23809329058725,41.01265822784811,0.764083046401345,0.0,0.415151,0.4120970383098996,0.0030539616900981106,0.0,0.0,0.0,0.0,0.0,0.0,0.0,33.13,0.0,S01
-60.1555538659402,-1.0102001258037376,23.343547255480484,64.53396286980258,40.32971032038206,40.0,0.19804177726312147,1.0,0.411307,0.4122691974553841,-0.0009621974553864709,0.0,0.0,0.0,0.0,0.0,0.0,0.0,33.13,0.0,S01
-60.45758926588837,-1.1217554333612625,22.187775531579888,64.41021516914,20.698616160912508,40.46055931428826,0.19804177726312147,0.0,0.411307,0.41244042575482837,-0.0011334257548307426,0.0,0.0,0.0,0.0,0.0,0.0,0.0,33.13,0.0,S01
-60.203861686158525,-1.085629708926753,23.297967420778114,64.56375794306469,-20.65855484598591,41.70208855088114,0.19804177726312147,0.0,0.41387,0.4126107056660488,0.0012592943339488447,0.0,0.0,0.0,0.0,0.0,0.0,0.0,33.13,0.0,S01
-60.31416501009999,-1.0003763391136347,22.692868926631945,64.44971337257232,-75.1665916310795,43.53614219407764,0.19804177726312147,0.0,0.411307,0.4127800100402809,-0.0014730100402834138,0.0,0.0,0.0,0.0,0.0,0.0,0.0,33.15,0.0,S01
-61.72220034592118,0.06416928926288498,22.072804612938768,65.55030767830681,38.293571999087064,45.742080193553264,0.19804177726312147,0.0,0.416433,0.41294831090068546,0.0034846890993120135,0.0,0.0,0.0,0.0,0.0,0.0,0.0,33.15,0.0,S01
-60.67534015517726,-0.9747315912576553,23.934987192138426,65.23289520256856,59.88336835601487,48.0,0.5187608199295255,1.0,0.411307,0.41311559741848203,-0.001808597418484572,0.0,0.0,0.0,0.0,0.0,0.0,0.0,33.15,0.0,S01
-59.727102817979,-0.9822505022008935,23.716848414061946,64.2711484709438,-34.76286251430343,50.86649515572828,0.5187608199295255,0.0,0.416433,0.41328188781928044,0.0031511121807169295,0.0,0.0,0.0,0.0,0.0,0.0,0.0,33.15,0.0,S01
-57.27074520733141,-0.03807962309660809,28.678224243216,64.04982632611076,-55.66737335337915,54.68926553672316,0.5187608199295255,0.0,0.416433,0.4134472413275335,0.002985758672463712,0.0,0.0,0.0,0.0,0.0,0.0,0.0,33.13,0.0,S01
-59.1279699149286,-1.2040790846938025,27.045433448143307,65.03093189475949,3.1845310520257013,58.33155483020527,0.5187608199295255,0.0,0.412589,0.41361177931098797,-0.0010227793109908539,0.0,0.0,0.0,0.0,0.0,0.0,0.0,33.13,0.0,S01
-57.92619454747081,-0.035357880643639476,28.76908153656772,64.67693033368886,41.501579676084944,60.0,0.6787822609644799,1.0,0.417714,0.4137756911915187,0.003938308808478333,0.0,0.0,0.0,0.0,0.0,0.0,0.0,33.13,0.0,S01
-58.31063285300443,-0.026674492760726393,28.416356259243212,64.86616928953546,20.042689317829876,57.85714285714285,0.6787822609644799,0.0,0.412589,0.413939222060163,-0.0013502220601660198,0.0,0.0,0.0,0.0,0.0,0.0,0.0,33.13,0.0,S01
-57.699345896663246,-0.029814939934275805,29.22082326525993,64.67667213248521,-30.161983924276548,53.11475409836065,0.6787822609644799,0.0,0.41387,0.414102657259905,-0.00023265725990804609,0.0,0.0,0.0,0.0,0.0,0.0,0.0,33.15,0.0,S01
-57.710032394409204,-0.0025672416004170386,29.42339137329984,64.77795771295096,8.602118613084949,48.0,0.6787822609644799,0.0,0.416433,0.41426630087686545,0.0021666991231315174,0.0,0.0,0.0,0.0,0.0,0.0,0.0,33.15,0.0,S01
-57.13928835270978,-6.816812571079447e-08,30.559196443604367,64.79786077281345,-13.962119509512393,43.78378378378379,0.6787822609644799,0.0,0.412589,0.4144304664502576,-0.0018414664502606779,0.0,0.0,0.0,0.0,0.0,0.0,0.0,33.15,0.0,S01
-56.45964838086847,-3.1610842675919207e-10,30.659643235893732,64.24722265315123,-3.1982193353846347,41.01265822784811,0.6787822609644799,0.0,0.412589,0.41459547072927794,-0.00200647072928109,0.0,0.0,0.0,0.0,0.0,0.0,0.0,33.15,0.0,S01
-57.3470271779478,-1.1847501992177187e-05,29.652173126788732,64.5595298719676,11.140205352758766,40.0,0.45491542277123154,1.0,0.412589,0.4147615999287858,-0.0021725999287890768,0.0,0.0,0.0,0.0,0.0,0.0,0.0,33.13,0.0,S01
-56.27899846231863,-0.540318868724423,30.75680502238469,64.13734222421873,-27.639629518023902,42.1978021978022,0.45491542277123154,0.0,0.41387,0.41492907595120354,-0.001059075951206893,0.0,0.0,0.0,0.0,0.0,0.0,0.0,33.13,0.0,S01
-55.7819890958426,0.11990479319739783,30.997357760002906,63.815992296208535,-48.897906959653795,48.0,0.45491542277123154,0.0,0.416433,0.4150980592060316,0.0013349407939648296,0.0,0.0,0.0,0.0,0.0,0.0,0.0,33.13,0.0,S01
-56.647470100653045,-0.00018350521339716112,30.354513200539483,64.26766170073235,44.77433587777012,55.65217391304348,0.45491542277123154,0.0,0.412589,0.4152686758077532,-0.002679675807756872,0.0,0.0,0.0,0.0,0.0,0.0,0.0,33.13,0.0,S01
-56.40850243233882,-0.0023131032954953274,31.025822361572903,64.37795278836924,50.580626190499366,60.0,0.4279367301216292,1.0,0.41387,0.4154410263984752,-0.0015710263984788841,0.0,0.0,0.0,0.0,0.0,0.0,0.0,33.15,0.0,S01
-55.86928591627926,0.009521040102721244,31.041819847188854,63.91378395049453,1.0700444355327707,58.47953216374269,0.4279367301216292,0.0,0.41387,0.41561516437246937,-0.0017451643724732315,0.0,0.0,0.0,0.0,0.0,0.0,0.0,33.15,0.0,S01
-55.96716929720729,1.911373226229922e-07,31.03233150046159,63.99476257864235,-9.881280176443314,55.147058823529406,0.4279367301216292,0.0,0.415151,0.41579108013847155,-0.0006400801384755973,0.0,0.0,0.0,0.0,0.0,0.0,0.0,33.15,0.0,S01
-55.48467599616099,-0.0023239649518851987,31.547082534820177,63.826073765025946,-56.58598324239362,51.63511187607573,0.4279367301216292,0.0,0.417714,0.4159687158489563,0.0017452841510394413,0.0,0.0,0.0,0.0,0.0,0.0,0.0,33.15,0.0,S01
-56.031786503935194,0.009497668263245674,31.57581517927805,64.31635323356107,18.97394896402525,49.01960784313726,0.4279367301216292,0.0,0.41387,0.41614799533308383,-0.002277995333088076,0.0,0.0,0.0,0.0,0.0,0.0,0.0,33.16,0.0,S01
-56.03178698502252,-0.03246808390301629,31.470252678708903,64.26460153594043,26.6507046434079,48.0,0.5643190640827247,1.0,0.416433,0.41632883564835144,0.00010416435164433693,0.0,0.0,0.0,0.0,0.0,0.0,0.0,33.16,0.0,S01
-56.001653801783455,0.0013064302395872007,31.53002862052259,64.26762742666436,6.970081537930642,53.553719008264466,0.5643190640827247,0.0,0.415151,0.416511134143512,-0.0013601341435161363,0.0,0.0,0.0,0.0,0.0,0.0,0.0,33.16,0.0,S01
-55.99052472705263,-0.03536211451469147,30.902473781317713,63.952349413409856,-58.55957730725181,68.21052631578947,0.5643190640827247,0.0,0.415151,0.4166947554575899,-0.0015437554575940607,0.0,0.0,0.0,0.0,0.0,0.0,0.0,33.16,0.0,S01
-55.999999752903356,-9.38862847607062e-07,31.554390801228557,64.27814209481971,32.56627442601939,80.0,0.7046206861582962,1.0,0.420277,0.41687953372731007,0.003397466272685693,0.0,0.0,0.0,0.0,0.0,0.0,0.0,33.15,0.0,S01
-56.000168361940105,-6.344520249779376e-07,31.03261610961701,64.02376214478886,17.41759712372825,77.06111617878763,0.7046206861582962,0.0,0.415151,0.4170652961229466,-0.0019142961229508945,0.0,0.0,0.0,0.0,0.0,0.0,0.0,33.15,0.0,S01
-55.86768693384466,-0.023911481666355643,31.001838834834434,63.89298104047174,-46.92598107288085,70.82926829268293,0.7046206861582962,0.0,0.416433,0.4172518802372187,-0.0008188802372230037,0.0,0.0,0.0,0.0,0.0,0.0,0.0,33.15,0.0,S01
-56.67648905229052,-1.0792828745316367,30.86138985830186,64.54312238189102,37.55442277453049,64.54678057928736,0.7046206861582962,0.0,0.417714,0.4174391178474787,0.00027488215251704636,0.0,0.0,0.0,0.0,0.0,0.0,0.0,33.15,0.0,S01
-56.11361899514455,0.09588335669026365,31.29735828024912,64.2516308405679,48.95407769804574,60.0,0.5933189587660127,1.0,0.415151,0.4176268155916193,-0.0024758155916233216,0.0,0.0,0.0,0.0,0.0,0.0,0.0,33.16,0.0,S01
-56.384174534425455,0.12893926230497912,31.080999828627,64.38338538481048,12.662468609956537,56.90387918636884,0.5933189587660127,0.0,0.420277,0.41781475393799167,0.002462246062004504,0.0,0.0,0.0,0.0,0.0,0.0,0.0,33.16,0.0,S01
-56.69077122019553,0.09930697979675321,30.939596684942934,64.5841470211051,-12.350056315945446,54.235482187553096,0.5933189587660127,0.0,0.418995,0.4180027044591101,0.000992295540886324,0.0,0.0,0.0,0.0,0.0,0.0,0.0,33.16,0.0,S01
-56.09502453044716,-0.5656618538276103,31.44085900614867,64.30784839697924,-45.407393166385035,51.90494702658668,0.5933189587660127,0.0,0.417714,0.4181904593118289,-0.0004764593118324072,0.0,0.0,0.0,0.0,0.0,0.0,0.0,33.16,0.0,S01
-56.06675097469355,-0.01678993427443317,30.8329159037857,63.9855417253782,-17.467698210035376,49.844056674884115,0.5933189587660127,0.0,0.420277,0.4183778423958311,0.0018991576041657398,0.0,0.0,0.0,0.0,0.0,0.0,0.0,33.15,0.0,S01
-56.000453547903106,0.12144716797692903,31.65015778362421,64.3257182992446,39.51939324329043,48.0,0.8864482463575917,1.0,0.416433,0.4185646991478454,-0.0021316991478483186,0.0,0.0,0.0,0.0,0.0,0.0,0.0,33.15,0.0,S01
-55.96498033869885,-0.03520024178165923,31.547939868448537,64.24447659769059,21.170624604491476,46.14776270619597,0.8864482463575917,0.0,0.421558,0.41875088635201174,0.0028071136479856447,0.0,0.0,0.0,0.0,0.0,0.0,0.0,33.15,0.0,S01
-55.99999907034364,-9.33559398621352e-07,32.084513090314616,64.54003312767246,1.2948511627082213,44.2696459575753,0.8864482463575917,0.0,0.417714,0.4189362711257482,-0.0012222711257504717,0.0,0.0,0.0,0.0,0.0,0.0,0.0,33.15,0.0,S01
-55.99999999997533,3.3570534704638224e-05,31.561773491267754,64.28176682320155,-25.23038605709896,42.57779955893163,0.8864482463575917,0.0,0.418995,0.41912073297886115,-0.00012573297886290442,0.0,0.0,0.0,0.0,0.0,0.0,0.0,33.16,0.0,S01
-55.99999999997654,-1.1999529424993682,32.12827646351338,64.57295126891393,-34.06869934782992,41.224561526835615,0.8864482463575917,0.0,0.420277,0.4193041567425991,0.0009728432573995348,0.0,0.0,0.0,0.0,0.0,0.0,0.0,33.16,0.0,S01
-55.999999115806744,-0.06808044794055633,32.22713299371264,64.6110875694891,23.69515864661235,40.32767438861907,0.8864482463575917,0.0,0.416433,0.4194864224858836,-0.0030534224858845905,0.0,0.0,0.0,0.0,0.0,0.0,0.0,33.16,0.0,S01
-55.966679068193386,-0.6249129238441447,30.78320914419225,63.87695709173711,34.046669110282544,40.0,0.4767155587601463,1.0,0.422839,0.4196673985286552,0.0031716014713442085,0.0,0.0,0.0,0.0,0.0,0.0,0.0,33.16,0.0,S01
-56.00066981130296,-0.00019721019787264336,31.39285873103925,64.19958410036983,4.213185306684986,42.1978021978022,0.4767155587601463,0.0,0.417714,0.4198469436552473,-0.0021329436552476105,0.0,0.0,0.0,0.0,0.0,0.0,0.0,33.16,0.0,S01
-56.00000001784269,-0.44792211265670107,32.015653166936765,64.50738472394441,-28.836661546534042,48.0,0.4767155587601463,0.0,0.420277,0.42002491548008813,0.0002520845199119814,0.0,0.0,0.0,0.0,0.0,0.0,0.0,33.16,0.0,S01
-56.00000235233005,-0.03357687740023491,32.25267257195022,64.62380582185715,-27.186124501904125,55.65217391304348,0.4767155587601463,0.0,0.422839,0.42020117276501234,0.0026378272349882603,0.0,0.0,0.0,0.0,0.0,0.0,0.0,33.16,0.0,S01
-56.0886444089583,0.0965466107471023,31.42178123329351,64.29054120751802,27.846461036763397,60.0,0.9525298597203059,1.0,0.422839,0.42037559611736974,0.00246340388263125,0.0,0.0,0.0,0.0,0.0,0.0,0.0,33.16,0.0,S01
-55.91504208422846,0.25509611132230564,30.81585777851273,63.84492224079042,15.575105449541843,58.89818098987992,0.9525298597203059,0.0,0.422839,0.4205481301218346,0.0022908698781667603,0.0,0.0,0.0,0.0,0.0,0.0,0.0,33.16,0.0,S01
-55.99999774486283,0.12910404726461117,31.391919143562337,64.19866823225867,-1.300070415129598,56.27876124538784,0.9525298597203059,0.0,0.418995,0.42071879805967294,-0.0017237980596712427,0.0,0.0,0.0,0.0,0.0,0.0,0.0,33.16,0.0,S01
-55.999999999940144,-0.03379968267566154,31.997502978404814,64.49683200952485,-38.11738083862778,53.13579473730563,0.9525298597203059,0.0,0.421558,0.42088767090123413,0.0006703290987678159,0.0,0.0,0.0,0.0,0.0,0.0,0.0,33.16,0.0,S01
-56.00000000000001,0.1386869970123167,32.00902260913376,64.50268802519146,-27.887174693212984,50.21640217511929,0.9525298597203059,0.0,0.424121,0.42105483637345065,0.0030661636265517096,0.0,0.0,0.0,0.0,0.0,0.0,0.0,33.16,0.0,S01
-56.0,-0.46365128460150457,31.997521051353623,64.49849863326689,30.00858644998802,48.0,0.9251919192090647,1.0,0.424121,0.4212204169549858,0.0029005830450169034,0.0,0.0,0.0,0.0,0.0,0.0,0.0,33.16,0.0,S01
-56.00000000000004,-0.00013943925081467257,32.00968243334163,64.5028663665641,20.430018383074945,46.14776270619597,0.9251919192090647,0.0,0.421558,0.4213846093093281,0.0001733906906748638,0.0,0.0,0.0,0.0,0.0,0.0,0.0,33.16,0.0,S01
-56.00000000124099,-0.4658820132421222,31.373455985544762,64.19120490118695,8.017244800968394,44.2696459575753,0.9251919192090647,0.0,0.420277,0.4215476810227333,-0.0012706810227300805,0.0,0.0,0.0,0.0,0.0,0.0,0.0,33.16,0.0,S01
-56.00004676142831,-0.6008239180676023,30.799127756767437,63.913633109379425,-23.388052246453586,42.57779955893163,0.9251919192090647,0.0,0.422839,0.4217099276946385,0.0011290723053649847,0.0,0.0,0.0,0.0,0.0,0.0,0.0,33.16,0.0,S01
-55.39200658059804,-1.2033719598006856,32.00668375893462,63.98554760524521,-68.7356529870936,41.224561526835615,0.9251919192090647,0.0,0.422839,0.4218716483887192,0.0009673516112843819,0.0,0.0,0.0,0.0,0.0,0.0,0.0,33.16,0.0,S01
-55.846381755341795,0.13584110373683975,32.0998579760338,64.41457668921203,30.481113034343622,40.32767438861907,0.9251919192090647,0.0,0.420277,0.42203315164926375,-0.0017561516492601368,0.0,0.0,0.0,0.0,0.0,0.0,0.0,33.16,0.0,S01
-55.218204241868236,-0.4610190456310568,32.82437773743669,64.23941463079376,37.500570217159996,40.0,0.5116825338285665,1.0,0.420277,0.4221947462764163,-0.0019177462764127517,0.0,0.0,0.0,0.0,0.0,0.0,0.0,33.16,0.0,S01
-55.378206006924884,-0.06413210654301083,32.091990156057534,64.0050439078749,11.312864174529455,40.70556309362279,0.5116825338285665,0.0,0.420277,0.4223567046356075,-0.0020797046356040216,0.0,0.0,0.0,0.0,0.0,0.0,0.0,33.16,0.0,S01
-56.111069134880246,-0.46065848382046315,31.953138842021833,64.57296158265896,-8.219482208780095,42.492917847025495,0.5116825338285665,0.0,0.424121,0.4225192412299666,0.0016017587700367976,0.0,0.0,0.0,0.0,0.0,0.0,0.0,33.16,0.0,S01
-56.00916327117189,0.0003512878493665706,31.996235202617054,64.50415054553764,-55.07026266364009,44.84304932735426,0.5116825338285665,0.0,0.424121,0.42268253705728154,0.0014384629427215763,0.0,0.0,0.0,0.0,0.0,0.0,0.0,33.16,0.0,S01
-56.00020729543255,0.09148444459222574,32.10222075806056,64.54908337175884,24.87139989651458,47.02194357366771,0.5116825338285665,0.0,0.420277,0.42284677921132185,-0.0025697792113190923,0.0,0.0,0.0,0.0,0.0,0.0,0.0,33.16,0.0,S01
-54.544229758175575,-0.628919113898786,32.85181686475041,63.6766080321461,43.048533259448455,48.0,0.6211679102456386,1.0,0.421558,0.42301215770469464,-0.0014541577046922436,0.0,0.0,0.0,0.0,0.0,0.0,0.0,33.16,0.0,S01
-56.00003027107512,0.10263374631516217,32.0089685136743,64.50262001931864,14.962800331241723,48.0,0.6211679102456386,0.0,0.420277,0.4231788225588386,-0.0029018225588363215,0.0,0.0,0.0,0.0,0.0,0.0,0.0,33.21,0.0,S01
-56.12452837987615,0.00030289354780634997,32.00000023802539,64.6062125587694,0.6059844530427972,48.0,0.6211679102456386,0.0,0.422839,0.4233468530645469,-0.0005078530645446345,0.0,0.0,0.0,0.0,0.0,0.0,0.0,33.21,0.0,S01
-56.007307651173846,0.1266583347965025,32.00000000000632,64.50453125686144,-46.556433814060384,48.0,0.6211679102456386,0.0,0.425402,0.4235162666891323,0.0018857333108698165,0.0,0.0,0.0,0.0,0.0,0.0,0.0,33.21,0.0,S01
-55.97519871076412,0.12668516470732033,31.999999999999872,64.47665406827868,9.231348854713197,48.0,0.6211679102456386,0.0,0.421558,0.4236870554139484,-0.0021290554139463957,0.0,0.0,0.0,0.0,0.0,0.0,0.0,33.21,0.0,S01
-55.40712518560729,-9.360449604873966e-06,31.999999995268904,63.98397862770692,38.618853934464205,48.0,0.7597055791510684,1.0,0.426683,0.423859212861627,0.0028237871383749356,0.0,0.0,0.0,0.0,0.0,0.0,0.0,33.21,0.0,S01
-55.99998746803134,-0.6095465857449032,31.999821752190563,64.50084290636697,18.061368847936834,48.0,0.7597055791510684,0.0,0.422839,0.42403274305002153,-0.001193743050019603,0.0,0.0,0.0,0.0,0.0,0.0,0.0,33.21,0.0,S01
-56.0000000172794,0.12379267149251909,32.091776227318356,64.54376366454844,0.5238099825519018,48.0,0.7597055791510684,0.0,0.424121,0.42420766298602697,-8.666298602515721e-05,0.0,0.0,0.0,0.0,0.0,0.0,0.0,33.21,0.0,S01
-56.00066353102888,0.11247264427105351,32.00065315308553,64.49906021203176,-30.407212000645735,48.0,0.7597055791510684,0.0,0.425402,0.42438399605116106,0.0010180039488405833,0.0,0.0,0.0,0.0,0.0,0.0,0.0,33.21,0.0,S01
-55.976175689690535,-0.6177151599728062,32.00000059238947,64.48033696232433,-36.565945822104226,48.0,0.7597055791510684,0.0,0.422839,0.42456176533641826,-0.0017227653364167348,0.0,0.0,0.0,0.0,0.0,0.0,0.0,33.21,0.0,S01
-55.90524224252344,0.018189131264578183,32.02166482460284,64.42657416919613,27.02536299517154,48.0,0.9421657211263176,1.0,0.422839,0.42474098386342124,-0.0019019838634199396,0.0,0.0,0.0,0.0,0.0,0.0,0.0,33.21,0.0,S01
-55.47219984216167,-1.0769664300595618,32.081587087795555,64.0901945861612,15.309359993876066,48.0,0.9421657211263176,0.0,0.422839,0.42492162642540576,-0.00208262642540471,0.0,0.0,0.0,0.0,0.0,0.0,0.0,33.21,0.0,S01
-55.38278507731579,-0.48978917446885295,32.00052681631053,63.96504117779484,-8.370715358303345,48.0,0.9421657211263176,0.0,0.424121,0.4251036044311202,-0.0009826044311194023,0.0,0.0,0.0,0.0,0.0,0.0,0.0,33.21,0.0,S01
-56.00253830557308,0.079216552880023,30.773084568805036,63.90049534869239,-54.59907347073215,48.0,0.9421657211263176,0.0,0.427965,0.4252867742917718,0.0026782257082287727,0.0,0.0,0.0,0.0,0.0,0.0,0.0,33.18,0.0,S01
-56.12050700132037,-0.48540159275069317,31.353817159971083,64.28692535261264,24.309420058388213,48.0,0.9421657211263176,0.0,0.424121,0.4254709762967942,-0.0013499762967935924,0.0,0.0,0.0,0.0,0.0,0.0,0.0,33.18,0.0,S01
-55.999843193533344,-0.5732053135761214,31.5093589268169,64.25846794011518,29.15330273871674,48.0,0.533598034760427,1.0,0.424121,0.4256560581739409,-0.0015350581739402781,0.0,0.0,0.0,0.0,0.0,0.0,0.0,33.18,0.0,S01
-56.740397277829615,0.10495784758587351,32.02823869589623,65.1559035955838,6.32833841420215,48.0,0.533598034760427,0.0,0.424121,0.42584185280303777,-0.00172085280303717,0.0,0.0,0.0,0.0,0.0,0.0,0.0,33.18,0.0,S01
-55.43408250414435,-0.02531447963307585,31.468703281875783,63.743371656525206,-17.31556995376953,48.0,0.533598034760427,0.0,0.424121,0.4260281436809933,-0.0019071436809927002,0.0,0.0,0.0,0.0,0.0,0.0,0.0,33.18,0.0,S01
-56.57567017819165,0.09413058001599822,30.903409940268226,64.46577435053338,-57.18693414796273,48.0,0.533598034760427,0.0,0.427965,0.4262146578418217,0.001750342158178792,0.0,0.0,0.0,0.0,0.0,0.0,0.0,33.18,0.0,S01
-56.75643530638172,-1.1134316104430415,30.744970658423586,64.55839139434899,20.366032583258225,48.0,0.533598034760427,0.0,0.424121,0.42640108624006895,-0.0022800862400684857,0.0,0.0,0.0,0.0,0.0,0.0,0.0,33.18,0.0,S01
-55.12334601623379,0.19646126040014233,31.748185509208366,63.612649340987076,25.08972027217076,48.0,0.5146722477991895,1.0,0.426683,0.4265871010713521,9.589892864822458e-05,0.0,0.0,0.0,0.0,0.0,0.0,0.0,33.18,0.0,S01
-56.87549622228876,-0.03457092227659777,30.771032565411243,64.66590841256195,18.171590914572484,48.0,0.5146722477991895,0.0,0.425402,0.42677235171825123,-0.0013703517182509677,0.0,0.0,0.0,0.0,0.0,0.0,0.0,33.18,0.0,S01
-55.957742295804515,-0.023779718134653845,31.5285331591026,64.22863762748901,-16.967224721270583,48.0,0.5146722477991895,0.0,0.425402,0.4269564546046666,-0.0015544546046664539,0.0,0.0,0.0,0.0,0.0,0.0,0.0,33.18,0.0,S01
-55.99981843751057,0.19349595690861693,31.65338349634066,64.32692898379263,-57.91722288260262,48.0,0.5146722477991895,0.0,0.430527,0.42713899529780097,0.0033880047021989605,0.0,0.0,0.0,0.0,0.0,0.0,0.0,33.18,0.0,S01
-56.123479390730274,-1.0957622821606585,31.471396350001093,64.35444368588384,24.518908908662247,48.0,0.5146722477991895,0.0,0.427965,0.42731955813812383,0.0006454418618760153,0.0,0.0,0.0,0.0,0.0,0.0,0.0,33.18,0.0,S01
-56.6667102481066,-1.1320112175494421,30.227887285855456,64.23490226898386,28.119649569412122,48.0,0.5036650168981305,1.0,0.436934,0.427497786465231,0.009436213534768789,0.0,0.0,0.0,0.0,0.0,0.0,0.0,33.18,0.0,S01
-56.00053104218236,-0.3384263259085389,32.18364466941754,64.59071909796195,3.7450348093008983,49.54838709677419,0.5036650168981305,0.0,0.425402,0.4276734459730537,-0.002271445973053906,0.0,0.0,0.0,0.0,0.0,0.0,0.0,33.18,0.0,S01
-56.000000014181346,0.09733754169814793,30.939906421680718,63.97880340837654,-36.91784116337227,53.333333333333336,0.5036650168981305,0.0,0.430527,0.42784643623954566,0.0026805637604540972,0.0,0.0,0.0,0.0,0.0,0.0,0.0,33.18,0.0,S01
-56.000003420220665,-1.1870603105348456,32.21846224776699,64.6176354013079,16.660607222795406,57.744360902255636,0.5036650168981305,0.0,0.429246,0.4280167443318252,0.0012292556681745479,0.0,0.0,0.0,0.0,0.0,0.0,0.0,33.18,0.0,S01
-56.128831049026275,-0.3031358829674997,32.122979195808654,64.67165807916196,29.968868574576323,60.0,0.6581203339573269,1.0,0.429246,0.42818441072690017,0.0010615892730995685,0.0,0.0,0.0,0.0,0.0,0.0,0.0,33.18,0.0,S01
-56.009292891715454,-0.5856318323189444,31.368937662192273,64.19808490077797,8.6355659406969,60.0,0.6581203339573269,0.0,0.430527,0.42834952892501144,0.002177471074988395,0.0,0.0,0.0,0.0,0.0,0.0,0.0,33.18,0.0,S01
-55.96725262473239,-0.5330032284395484,31.96311435186724,64.45353471977067,-33.17434696995095,60.0,0.6581203339573269,0.0,0.426683,0.42851224210762906,-0.0018292421076290945,0.0,0.0,0.0,0.0,0.0,0.0,0.0,33.18,0.0,S01
-55.3662002345237,-0.43694380975963787,31.967991022479513,63.934024574678475,-69.01847191347194,60.0,0.6581203339573269,0.0,0.427965,0.42867271851576894,-0.0007077185157686539,0.0,0.0,0.0,0.0,0.0,0.0,0.0,33.18,0.0,S01
-56.11950762425794,-0.4918641338769506,31.441799038370018,64.32905869888495,92.84686100842305,60.0,0.9663262270106886,1.0,0.431809,0.4288311238716195,0.0029778761283810436,0.0,0.0,0.0,0.0,0.0,0.0,0.0,33.23,0.0,S01
-56.000683210909905,0.1846033115700043,32.1381543935652,64.56757364417501,32.00447811711748,60.0,0.9663262270106886,0.0,0.426683,0.42898762442419364,-0.0023046244241930183,0.0,0.0,0.0,0.0,0.0,0.0,0.0,33.23,0.0,S01
-55.96744715492956,-1.2226383428471648,31.420182265760275,64.19562165109727,-23.48008001207845,60.0,0.9663262270106886,0.0,0.429246,0.42914239617452604,0.00010360382547484469,0.0,0.0,0.0,0.0,0.0,0.0,0.0,33.23,0.0,S01
-55.35180096154249,-0.3030471183444712,32.01010424650645,63.9418523434719,15.292031639519955,60.0,0.9663262270106886,0.0,0.427965,0.42929560668729816,-0.0013306066872971053,0.0,0.0,0.0,0.0,0.0,0.0,0.0,33.23,0.0,S01
-55.962064289244935,-0.5315795294964152,32.132501012589394,64.53319175148414,22.80520690203067,60.0,0.507033027976239,1.0,0.427965,0.42944739392063,-0.0014823939206287647,0.0,0.0,0.0,0.0,0.0,0.0,0.0,33.21,0.0,S01
-56.009302247527394,-1.1015447188964997,30.791429400631028,63.92470151323861,-8.601066635859288,64.15841584158416,0.507033027976239,0.0,0.434371,0.4295978695469169,0.00477313045308456,0.0,0.0,0.0,0.0,0.0,0.0,0.0,33.21,0.0,S01
-56.00000017873142,-0.32949594971225105,32.00954276340383,64.50363877736646,-36.83903941333793,73.63636363636363,0.507033027976239,0.0,0.427965,0.42974715285759457,-0.0017821528575929098,0.0,0.0,0.0,0.0,0.0,0.0,0.0,33.21,0.0,S01
-55.99743651172078,0.018713351120637114,31.99768165108519,64.49468875122899,34.664000089176675,80.0,0.8816336993825032,1.0,0.431809,0.42989540166270807,0.0019135983372938047,0.0,0.0,0.0,0.0,0.0,0.0,0.0,33.21,0.0,S01
-55.35150840456858,-1.2266038809087858,31.999999938493996,63.94758819381152,16.644504732632793,76.03960396039604,0.8816336993825032,0.0,0.429246,0.43004280659831023,-0.0007968065983081814,0.0,0.0,0.0,0.0,0.0,0.0,0.0,33.18,0.0,S01
-56.00935411297087,0.20151776311135106,31.999999999998376,64.50649856844589,-24.867328517847426,68.57142857142857,0.8816336993825032,0.0,0.429246,0.43018957020452486,-0.0009435702045225915,0.0,0.0,0.0,0.0,0.0,0.0,0.0,33.18,0.0,S01
-55.96786224884827,0.19002006164324234,32.0,64.47044060908752,-9.716243488302979,62.4390243902439,0.8816336993825032,0.0,0.43309,0.4303358951912081,0.0027541048087942593,0.0,0.0,0.0,0.0,0.0,0.0,0.0,33.18,0.0,S01
-55.99999821889936,0.22127919956865505,32.0,64.49844001990198,34.36076089274803,60.0,0.9286563698701004,1.0,0.429246,0.4304819910488914,-0.0012359910488889663,0.0,0.0,0.0,0.0,0.0,0.0,0.0,33.18,0.0,S01
-55.96503079811342,0.01841084419251479,32.0,64.46770518013625,-3.0991477295492733,60.0,0.9286563698701004,0.0,0.430527,0.43062808373138023,-0.0001010837313777732,0.0,0.0,0.0,0.0,0.0,0.0,0.0,33.25,0.0,S01
-55.96607012929474,0.21458574831529406,32.0,64.46896193332508,-31.42503297569265,60.0,0.9286563698701004,0.0,0.429246,0.4307744009182046,-0.0015284009182019186,0.0,0.0,0.0,0.0,0.0,0.0,0.0,33.25,0.0,S01
-56.00854219607986,-1.2013796113807047,32.0,64.51666538113001,22.80615995234078,60.0,0.9286563698701004,0.0,0.430527,0.4309211481167425,-0.00039414811673945456,0.0,0.0,0.0,0.0,0.0,0.0,0.0,33.25,0.0,S01
-55.346111139650816,0.09163291217694987,32.0,63.9312162786942,26.97413299225285,60.0,0.5254570475290328,1.0,0.434371,0.43106850918477535,0.0033024908152280022,0.0,0.0,0.0,0.0,0.0,0.0,0.0,33.25,0.0,S01
-55.99774567287825,0.12008583596046304,32.00000000000001,64.49621648633627,6.287623570511332,58.47953216374269,0.5254570475290328,0.0,0.429246,0.4312166743183091,-0.0019706743183054475,0.0,0.0,0.0,0.0,0.0,0.0,0.0,33.21,0.0,S01
-55.3340084314778,0.09923643215116565,32.0,63.92075044118555,-6.047110849504146,55.147058823529406,0.5254570475290328,0.0,0.430527,0.43136585275009626,-0.0008388527500922871,0.0,0.0,0.0,0.0,0.0,0.0,0.0,33.21,0.0,S01
-56.00004381368318,-1.095354310385294,31.999999999647923,64.50740041403918,-31.907141177354443,51.63511187607573,0.5254570475290328,0.0,0.430527,0.43151624572279634,-0.0009892457227920883,0.0,0.0,0.0,0.0,0.0,0.0,0.0,33.21,0.0,S01
-55.99999904911197,0.1014121642204041,31.999986740965024,64.4981343090599,-3.0929012458486853,49.01960784313726,0.5254570475290328,0.0,0.430527,0.4316680194212702,-0.00114101942126568,0.0,0.0,0.0,0.0,0.0,0.0,0.0,33.21,0.0,S01
-55.964146942229675,-0.5868953571248986,31.3302748464648,64.13981845224318,24.49335095802312,48.0,0.8414506701238904,1.0,0.434371,0.4318213083931587,0.0025496916068462497,0.0,0.0,0.0,0.0,0.0,0.0,0.0,33.21,0.0,S01
-56.00060674105092,-0.5525894401349392,31.472584168245778,64.24092826759667,6.964817533406499,49.54838709677419,0.8414506701238904,0.0,0.430527,0.4319762402933116,-0.0014492402933061802,0.0,0.0,0.0,0.0,0.0,0.0,0.0,33.21,0.0,S01
-55.98402001385283,0.06873734127506406,32.01581865310111,64.49207599203034,-17.597760153834518,53.333333333333336,0.8414506701238904,0.0,0.430527,0.43213294835747934,-0.001605948357473357,0.0,0.0,0.0,0.0,0.0,0.0,0.0,33.21,0.0,S01
-55.42515094704171,0.1920993690545621,31.458692972389656,63.73094713874122,-28.993695886346313,57.744360902255636,0.8414506701238904,0.0,0.430527,0.43229154717159185,-0.0017645471715854574,0.0,0.0,0.0,0.0,0.0,0.0,0.0,33.21,0.0,S01
-55.999744258922156,-0.3910257091785722,31.969359519546128,64.48382902914435,16.54405833486924,60.0,0.928320432598578,1.0,0.431809,0.4324521022683155,-0.0006431022683087004,0.0,0.0,0.0,0.0,0.0,0.0,0.0,33.23,0.0,S01
-55.569276162949436,-0.41447463729991185,31.997403635766087,64.12448894088156,-6.270641364605871,60.0,0.928320432598578,0.0,0.434371,0.43261463324382177,0.0017563667561852835,0.0,0.0,0.0,0.0,0.0,0.0,0.0,33.23,0.0,S01
-55.92829079158373,-0.3979671375880804,31.331261724995898,64.10756624604262,-28.168471410417947,60.0,0.928320432598578,0.0,0.430527,0.4327791412270284,-0.0022521412270211537,0.0,0.0,0.0,0.0,0.0,0.0,0.0,33.23,0.0,S01
-55.58136628270384,-1.1265669032212922,31.884167145167503,64.08710904215059,18.62820387403515,60.0,0.928320432598578,0.0,0.431809,0.4329456179482569,-0.0011366179482494663,0.0,0.0,0.0,0.0,0.0,0.0,0.0,33.23,0.0,S01
-55.999885672646386,-0.7040219976059392,31.968817521677657,64.48634069364537,22.153124030361415,60.0,0.5138026752058151,1.0,0.43309,0.4331140272538244,-2.4027253816767116e-05,0.0,0.0,0.0,0.0,0.0,0.0,0.0,33.23,0.0,S01
-55.99999999906106,-1.2590509783424726,31.99999917078095,64.51034921770992,5.281625630737347,60.0,0.5138026752058151,0.0,0.430527,0.43328429265622237,-0.0027572926562144805,0.0,0.0,0.0,0.0,0.0,0.0,0.0,33.23,0.0,S01
-56.00007883190614,-0.53531613920549,31.999920209614213,64.50031229358717,-29.849123496434835,60.0,0.5138026752058151,0.0,0.435653,0.43345630007476604,0.0021966999252420977,0.0,0.0,0.0,0.0,0.0,0.0,0.0,33.23,0.0,S01
-56.94017613972516,-1.190157357767185,31.02373337639866,64.8542378412471,6.540212264010671,60.0,0.5138026752058151,0.0,0.434371,0.43362991577196086,0.0007410842280473867,0.0,0.0,0.0,0.0,0.0,0.0,0.0,33.23,0.0,S01
-55.979899818467096,-0.6170294906293031,32.020695719727335,64.49383585625283,25.347337637609257,60.0,0.7598041622498349,1.0,0.43309,0.43380501643929936,-0.0007150164392909833,0.0,0.0,0.0,0.0,0.0,0.0,0.0,33.21,0.0,S01
-55.99999946202082,-1.1995969568794338,32.000000548921484,64.50921645576128,15.95922123626375,58.47953216374269,0.7598041622498349,0.0,0.435653,0.433981500900706,0.001671499099302579,0.0,0.0,0.0,0.0,0.0,0.0,0.0,33.21,0.0,S01
-55.999817250711374,0.09438805634456342,31.99999999998965,64.49797238066937,-9.77527015359917,55.147058823529406,0.7598041622498349,0.0,0.435653,0.4341592895482295,0.001493710451779123,0.0,0.0,0.0,0.0,0.0,0.0,0.0,33.21,0.0,S01
-56.249924886506584,-1.0911177984748426,31.999999062077208,64.72437352157782,-40.58602528732028,51.63511187607573,0.7598041622498349,0.0,0.436934,0.43433834204777705,0.002595657952231728,0.0,0.0,0.0,0.0,0.0,0.0,0.0,33.21,0.0,S01
-55.50151247904736,0.058617729826186925,31.964684485753487,64.04812548212375,23.096336237092892,49.01960784313726,0.7598041622498349,0.0,0.43309,0.434518674989606,-0.0014286749895969797,0.0,0.0,0.0,0.0,0.0,0.0,0.0,33.25,0.0,S01
-55.634541869824496,-0.5909211012803219,31.164394393463795,63.77123893045007,24.493604915111764,48.0,0.4855512888841545,1.0,0.43309,0.4347003428431125,-0.0016103428431031076,0.0,0.0,0.0,0.0,0.0,0.0,0.0,33.25,0.0,S01
-55.477877409182,-1.0665845507972918,32.50452546221025,64.3076718592401,4.636603159209699,49.54838709677419,0.4855512888841545,0.0,0.436934,0.43488339748856647,0.002050602511443381,0.0,0.0,0.0,0.0,0.0,0.0,0.0,33.25,0.0,S01
-55.28996769924812,-0.5827594430479671,31.984384018884505,63.87739003606704,-15.91713584249901,53.333333333333336,0.4855512888841545,0.0,0.43309,0.43506787518162865,-0.0019778751816183857,0.0,0.0,0.0,0.0,0.0,0.0,0.0,33.25,0.0,S01
-56.09677253213512,0.09893569058995963,31.21833168659549,64.19845722513332,-36.318634268769145,57.744360902255636,0.4855512888841545,0.0,0.43309,0.4352537987334427,-0.002163798733432176,0.0,0.0,0.0,0.0,0.0,0.0,0.0,33.25,0.0,S01
-55.60215277226522,0.14550933159486118,32.03064288450974,64.16839291637976,20.739988615363433,60.0,0.8851308281586677,1.0,0.435653,0.435441158263216,0.00021184173679481228,0.0,0.0,0.0,0.0,0.0,0.0,0.0,33.25,0.0,S01
-56.00958895397352,-0.031653620531734136,32.00001617052797,64.50640349344255,13.289526319162507,60.0,0.8851308281586677,0.0,0.43309,0.43562989495135457,-0.002539894951343785,0.0,0.0,0.0,0.0,0.0,0.0,0.0,33.25,0.0,S01
-54.729794109501604,-0.940869941832003,32.77100286361074,63.79791711492361,-11.652758432745891,60.0,0.8851308281586677,0.0,0.438215,0.43581990916496716,0.002395090835043641,0.0,0.0,0.0,0.0,0.0,0.0,0.0,33.25,0.0,S01
-55.37052525150034,-0.49647629566891516,31.99879362626632,63.95361091350183,-38.64896747958669,60.0,0.8851308281586677,0.0,0.434371,0.43601108073996464,-0.0016400807399539821,0.0,0.0,0.0,0.0,0.0,0.0,0.0,33.25,0.0,S01
-56.13606097904625,0.13608527979768326,31.999999923111993,64.61637452322549,18.221164808806833,60.0,0.8082585467238684,1.0,0.435653,0.43620328310710277,-0.0005502831070922573,0.0,0.0,0.0,0.0,0.0,0.0,0.0,33.25,0.0,S01
-55.99878801681912,-0.4837175942031663,31.998309747610293,64.4979849977315,15.546704964053482,60.0,0.8082585467238684,0.0,0.438215,0.4363963821130131,0.0018186178869970702,0.0,0.0,0.0,0.0,0.0,0.0,0.0,33.25,0.0,S01
-57.10603629048349,-0.6577011127391127,30.519429019788642,64.75312733187202,-15.125365719341676,60.0,0.8082585467238684,0.0,0.434371,0.4365902378571367,-0.002219237857126883,0.0,0.0,0.0,0.0,0.0,0.0,0.0,33.25,0.0,S01
-55.24852142004622,-0.24173841682010566,32.85890036627485,64.28191728506742,-28.16244822906864,60.0,0.8082585467238684,0.0,0.439497,0.4367847125975513,0.0027122874024580147,0.0,0.0,0.0,0.0,0.0,0.0,0.0,33.25,0.0,S01
-56.24828159761793,-1.0917533224565739,31.88864856046106,64.66797518876415,16.2669071368979,60.0,0.8678050817435422,1.0,0.435653,0.4369796755776104,-0.0013266755776015066,0.0,0.0,0.0,0.0,0.0,0.0,0.0,33.25,0.0,S01
-56.09930114774018,0.09941442666724183,31.97008504405411,64.56955792180341,0.2584463681938875,64.15841584158416,0.8678050817435422,0.0,0.436934,0.43717500478093496,-0.00024100478092653195,0.0,0.0,0.0,0.0,0.0,0.0,0.0,33.25,0.0,S01
-56.00041974919058,-0.525601933987878,31.999999789724065,64.50056787363104,-29.481508521515273,73.63636363636363,0.8678050817435422,0.0,0.439497,0.43737058255750194,0.002126417442506143,0.0,0.0,0.0,0.0,0.0,0.0,0.0,33.25,0.0,S01
-55.975297224944164,0.24494674584945483,32.02194898644658,64.48797651670994,12.68793627426288,80.0,0.6438121149884606,1.0,0.435653,0.43756629733865793,-0.0019132973386501424,0.0,0.0,0.0,0.0,0.0,0.0,0.0,33.23,0.0,S01
-55.49960255419252,-0.22224020259224847,32.09872375082241,64.11383111944404,-8.40120113872272,80.0,0.6438121149884606,0.0,0.439497,0.43776204839759997,0.0017349516024075151,0.0,0.0,0.0,0.0,0.0,0.0,0.0,33.23,0.0,S01
-55.29830620215061,-0.6067860746064365,32.00000261791757,63.89265236092392,-20.691254547329837,80.0,0.6438121149884606,0.0,0.439497,0.43795774755174793,0.0015392524482592913,0.0,0.0,0.0,0.0,0.0,0.0,0.0,33.23,0.0,S01
-56.10842092249202,-0.5019458436486121,32.00000000006943,64.59417038750432,28.357205303435737,80.0,0.9311239396633804,1.0,0.438215,0.4381533330742052,6.166692580177333e-05,0.0,0.0,0.0,0.0,0.0,0.0,0.0,33.23,0.0,S01
-55.96332767435502,0.22503402914897136,32.0,64.46661682376008,17.939837334372893,74.81296758104737,0.9311239396633804,0.0,0.440778,0.4383487836019277,0.002429216398078887,0.0,0.0,0.0,0.0,0.0,0.0,0.0,33.27,0.0,S01
-55.395151872755264,-0.2484939648574542,32.000000000000014,63.97409319604454,-0.09796993011001956,64.79481641468684,0.9311239396633804,0.0,0.436934,0.4385441167793025,-0.0016101167792962807,0.0,0.0,0.0,0.0,0.0,0.0,0.0,33.27,0.0,S01
-56.0000428643401,0.12004658252151801,32.000000000347434,64.4982109210181,-20.430247442831575,55.865921787709496,0.9311239396633804,0.0,0.438215,0.43873937264274115,-0.0005243726427351472,0.0,0.0,0.0,0.0,0.0,0.0,0.0,33.27,0.0,S01
-55.97312960728727,-0.5253015104060679,32.000013078587656,64.47687970692125,-23.172606803679855,50.08347245409015,0.9311239396633804,0.0,0.436934,0.43893458174354977,-0.002000581743544066,0.0,0.0,0.0,0.0,0.0,0.0,0.0,33.27,0.0,S01
-55.06642777639183,-0.9681046364317819,32.70283944784732,64.05251285149816,29.71832717317392,48.0,0.9435331360509842,1.0,0.438215,0.4391297363266057,-0.0009147363266002572,0.0,0.0,0.0,0.0,0.0,0.0,0.0,33.25,0.0,S01
-56.2753733889304,0.042266623410551526,31.833599770485147,64.65522029100529,18.207273164433808,48.0,0.9435331360509842,0.0,0.440778,0.43932478594011704,0.0014532140598881387,0.0,0.0,0.0,0.0,0.0,0.0,0.0,33.25,0.0,S01
-55.35928741424529,-0.9796165473578659,32.64075241367114,64.27308199957002,4.631089917367977,48.0,0.9435331360509842,0.0,0.436934,0.4395196544241674,-0.002585654424162542,0.0,0.0,0.0,0.0,0.0,0.0,0.0,33.25,0.0,S01
-54.77823453756994,-0.6358532973810552,32.02851303540119,63.45774133805642,-14.230473391904244,48.0,0.9435331360509842,0.0,0.438215,0.43971424469065973,-0.0014992446906551937,0.0,0.0,0.0,0.0,0.0,0.0,0.0,33.25,0.0,S01
-56.17284290351178,-0.3814210268591549,31.963401734994612,64.63120618041258,-43.821852607211795,48.0,0.9435331360509842,0.0,0.442059,0.4399084251873506,0.0021505748126535145,0.0,0.0,0.0,0.0,0.0,0.0,0.0,33.25,0.0,S01
-55.73952638965337,-0.47239770694419475,32.468402420041066,64.50825619597943,20.431221410986236,48.0,0.8236980154488942,1.0,0.438215,0.44010203774427575,-0.001887037744271809,0.0,0.0,0.0,0.0,0.0,0.0,0.0,33.25,0.0,S01
-56.137375046346804,-0.6467172580684093,32.000007070595856,64.62061260019335,18.457360841921407,47.299270072992705,0.8236980154488942,0.0,0.443341,0.4402949237595217,0.003046076240481993,0.0,0.0,0.0,0.0,0.0,0.0,0.0,33.25,0.0,S01
-56.215953110314636,-1.1412425716379142,31.86257468643676,64.62785378114589,3.852760725852384,45.633802816901415,0.8236980154488942,0.0,0.442059,0.44048694735874927,0.0015720526412543174,0.0,0.0,0.0,0.0,0.0,0.0,0.0,33.25,0.0,S01
-55.50728260994142,-1.085461188571531,32.60021451517464,64.3817570059035,-9.903535883006048,43.63636363636363,0.8236980154488942,0.0,0.440778,0.44067801858198563,9.998141801787012e-05,0.0,0.0,0.0,0.0,0.0,0.0,0.0,33.27,0.0,S01
-55.964095963566976,-0.384108208102813,32.00001425431887,64.46804238079109,-33.3346009673214,41.806451612903224,0.8236980154488942,0.0,0.443341,0.4408681013318867,0.0024728986681166326,0.0,0.0,0.0,0.0,0.0,0.0,0.0,33.27,0.0,S01
-55.25136941099234,-1.224558348358077,32.00000097260895,63.860891218220935,13.46259042241116,40.5,0.8236980154488942,0.0,0.439497,0.4410572030388369,-0.0015602030388336009,0.0,0.0,0.0,0.0,0.0,0.0,0.0,33.27,0.0,S01
-54.887968790551035,-1.2046170155268756,32.03659434768909,63.56479841472784,15.778945280094707,40.0,0.5096556146497128,1.0,0.444622,0.44124536436529105,0.0033766356347121828,0.0,0.0,0.0,0.0,0.0,0.0,0.0,33.27,0.0,S01
-54.87524919055391,-0.6856569812137596,31.999450777355797,63.527379524687554,6.038858074015231,42.1978021978022,0.5096556146497128,0.0,0.439497,0.44143265504986123,-0.0019356550498581,0.0,0.0,0.0,0.0,0.0,0.0,0.0,33.25,0.0,S01
-56.077578952444554,-1.084981030176562,32.00000095843036,64.57454689227824,-20.367857271617915,48.0,0.5096556146497128,0.0,0.440778,0.44161916367658294,-0.0008411636765798679,0.0,0.0,0.0,0.0,0.0,0.0,0.0,33.25,0.0,S01
-56.20667023901529,0.09217636097203553,32.03662181573412,64.69577585285843,2.754097669843971,55.65217391304348,0.5096556146497128,0.0,0.444622,0.441804978316603,0.0028170216834000985,0.0,0.0,0.0,0.0,0.0,0.0,0.0,33.25,0.0,S01
-54.816360766861855,-0.9453202791687957,32.736445544696664,63.854537074931876,15.455808172877678,60.0,0.7682153220765792,1.0,0.439497,0.4419901855205273,-0.0024931855205243014,0.0,0.0,0.0,0.0,0.0,0.0,0.0,33.25,0.0,S01
-56.14202621998793,-0.5456770879674432,32.73813191310769,64.99238534420925,10.825812422050534,58.47953216374269,0.7682153220765792,0.0,0.440778,0.4421748723923198,-0.0013968723923168161,0.0,0.0,0.0,0.0,0.0,0.0,0.0,33.27,0.0,S01
-55.329810326524516,-0.6823052797069882,32.73929748531994,64.29397367635767,-5.222276778868341,55.147058823529406,0.7682153220765792,0.0,0.439497,0.4423590950997479,-0.002862095099745018,0.0,0.0,0.0,0.0,0.0,0.0,0.0,33.27,0.0,S01
-55.60040599211032,-1.1223451058980345,32.02690901421364,64.17466560901545,-32.595050252670106,51.63511187607573,0.7682153220765792,0.0,0.443341,0.4425428474052581,0.0007981525947447306,0.0,0.0,0.0,0.0,0.0,0.0,0.0,33.27,0.0,S01
-55.61775562856247,0.09193782493639209,32.382051131997194,64.35790883207306,3.7140031866024987,49.01960784313726,0.7682153220765792,0.0,0.444622,0.442726075017818,0.0018959249821849746,0.0,0.0,0.0,0.0,0.0,0.0,0.0,33.27,0.0,S01
-56.25163568998322,-1.084231100935371,31.999468362527583,64.72548223353175,27.72208584040434,48.0,0.7741696461740741,1.0,0.443341,0.4429087235502133,0.00043227644978965153,0.0,0.0,0.0,0.0,0.0,0.0,0.0,33.27,0.0,S01
-55.2178820794903,0.08386305764857283,31.999999985932316,63.82022824666645,12.54911403012859,48.0,0.7741696461740741,0.0,0.443341,0.44309077122819845,0.0002502287718046144,0.0,0.0,0.0,0.0,0.0,0.0,0.0,33.27,0.0,S01
-55.2248413210572,-0.9796944184181903,32.00000097327822,63.83371336824479,-4.630921739261964,48.0,0.7741696461740741,0.0,0.445903,0.44327223108717967,0.0026307689128235736,0.0,0.0,0.0,0.0,0.0,0.0,0.0,33.27,0.0,S01
-55.971382799654776,-0.3590082213057605,32.0366291210639,64.49240408644305,-34.98173403053027,48.0,0.7741696461740741,0.0,0.440778,0.4434531470810231,-0.0026751470810198264,0.0,0.0,0.0,0.0,0.0,0.0,0.0,33.27,0.0,S01
-56.076261527182055,0.12417425602111744,31.99941526429836,64.56411622075987,8.797663147244926,48.0,0.7741696461740741,0.0,0.445903,0.443633584102565,0.002269415897438282,0.0,0.0,0.0,0.0,0.0,0.0,0.0,33.27,0.0,S01
-55.623289890630005,-0.7436001718307909,32.44347170782185,64.39784294468912,30.972795647739115,48.0,0.7282501435926467,1.0,0.442059,0.44381361191910385,-0.0017546119191005948,0.0,0.0,0.0,0.0,0.0,0.0,0.0,33.27,0.0,S01
-56.084946946402226,-0.47258643681567836,31.926093476205214,64.53696658948581,16.706488490530077,48.0,0.7282501435926467,0.0,0.443341,0.4439932952361842,-0.0006522952361809119,0.0,0.0,0.0,0.0,0.0,0.0,0.0,33.27,0.0,S01
-55.19102891750574,-0.5332212542892573,32.03539021910998,63.81692741247911,-3.45799084691222,48.0,0.7282501435926467,0.0,0.445903,0.4441726868345223,0.0017303131654810434,0.0,0.0,0.0,0.0,0.0,0.0,0.0,33.27,0.0,S01
-56.08091393748515,-0.5234186439038919,32.02697093172538,64.58381950769082,-31.875812011238718,48.0,0.7282501435926467,0.0,0.442059,0.4443518298807113,-0.0022928298807078874,0.0,0.0,0.0,0.0,0.0,0.0,0.0,33.27,0.0,S01
-56.10290344098484,-0.9902461173976838,31.86332660814241,64.52742009734037,10.84920433648313,48.0,0.7282501435926467,0.0,0.445903,0.4445307632971429,0.0013722367028606726,0.0,0.0,0.0,0.0,0.0,0.0,0.0,33.27,0.0,S01
-55.101002849864436,-0.7937698538486265,33.05172134736174,64.25859374173463,-14.913426854210263,50.472045716828184,0.9329637825267855,0.0,0.483062,0.48447677068446804,-0.00141477068446421,0.0,0.0,0.0,0.0,0.0,0.0,0.0,33.34,1.0,S01
-54.808022084061285,-1.001700497702426,33.783173649281146,64.39119124904843,-44.05323722861847,48.66473616473617,0.9329637825267855,0.0,0.488187,0.48475737490165244,0.0034296250983513457,0.0,0.0,0.0,0.0,0.0,0.0,0.0,33.34,1.0,S01
-57.27562140845886,-0.8098321007204068,31.00317605041723,65.13332143357678,20.890807607282124,48.0,0.8507061837369551,1.0,0.483062,0.4850394152565731,-0.001977415256569303,0.0,0.0,0.0,0.0,0.0,0.0,0.0,33.34,1.0,S01
-54.077934188990255,-0.16029443322533937,33.91364985548779,63.8324706319183,13.655699175354371,48.0,0.8507061837369551,0.0,0.484343,0.4853232326385848,-0.0009802326385809936,0.0,0.0,0.0,0.0,0.0,0.0,0.0,33.34,1.0,S01
-55.10527563370688,-1.106960831863715,33.805093413278044,64.6575680460574,3.4342098200822195,48.0,0.8507061837369551,0.0,0.488187,0.48560916578310465,0.0025778342168991,0.0,0.0,0.0,0.0,0.0,0.0,0.0,33.34,1.0,S01
-55.70237177052283,-0.9978660180825354,32.28927243944026,64.39213517286082,-21.379463084074526,48.0,0.8507061837369551,0.0,0.486906,0.4858975557093428,0.0010084442906610918,0.0,0.0,0.0,0.0,0.0,0.0,0.0,33.34,1.0,S01
-54.79720337805981,-1.110714078009955,33.98599985537251,64.49042851453943,-12.708390946515612,48.0,0.8507061837369551,0.0,0.489468,0.48618878366630386,0.0032792163337002933,0.0,0.0,0.0,0.0,0.0,0.0,0.0,33.34,1.0,S01
-55.86132344655006,-0.9983117705772478,32.138737242540586,64.45449957246136,16.326849027703762,48.0,0.9657175863554398,1.0,0.485624,0.48648329676887136,-0.0008592967688670859,0.0,0.0,0.0,0.0,0.0,0.0,0.0,33.37,1.0,S01
-55.21102261557236,-0.028873597364614957,33.717705458896525,64.69266970341205,2.355145926512191,46.95949800342271,0.9657175863554398,0.0,0.484343,0.48678159077264155,-0.0024385907726371687,0.0,0.0,0.0,0.0,0.0,0.0,0.0,33.37,1.0,S01
-56.0321423190408,-0.7886400584063301,31.178018884393012,64.12715327814368,-14.205678577913813,44.47325769854133,0.9657175863554398,0.0,0.489468,0.4870841652437064,0.002383834756298258,0.0,0.0,0.0,0.0,0.0,0.0,0.0,33.37,1.0,S01
-54.90518425505288,-1.1103846051363575,34.210562501458114,64.70065531908315,2.0862357710616775,41.47103274559194,0.9657175863554398,0.0,0.485624,0.48739150301515666,-0.0017675030151518276,0.0,0.0,0.0,0.0,0.0,0.0,0.0,33.37,1.0,S01
-52.819286825355654,-0.0983182568785689,38.08300039231398,65.11683074367035,-2.500280760933277,38.629751290473955,0.9657175863554398,0.0,0.485624,0.4877040739068824,-0.0020800739068774113,0.0,0.0,0.0,0.0,0.0,0.0,0.0,33.37,1.0,S01
-52.8635783235238,0.10494606715667454,36.241380527023885,64.09373283987205,4.3512831320409475,36.34437086092715,0.9657175863554398,0.0,0.489468,0.4880223229958491,0.001445677004156144,0.0,0.0,0.0,0.0,0.0,0.0,0.0,33.37,1.0,S01
-52.9986633446237,-1.148551636643706,36.10590755595735,64.13902125553628,-70.35323797203144,34.83707151925518,0.9657175863554398,0.0,0.485624,0.4883466617423734,-0.0027226617423679825,0.0,0.0,0.0,0.0,0.0,0.0,0.0,33.37,1.0,S01
-52.9639803866073,-0.012196933243034086,36.03393613646873,64.05956541099236,47.86968341974114,34.285714285714285,0.7589502375953778,1.0,0.489468,0.48867747416869295,0.0007905258313127208,0.0,0.0,0.0,0.0,0.0,0.0,0.0,33.37,1.0,S01
-53.012907010561754,-0.9395453301329932,35.05645255556558,63.56261417624721,27.66203295960364,34.91568234157938,0.7589502375953778,0.0,0.485624,0.48901511364545186,-0.003391113645445929,0.0,0.0,0.0,0.0,0.0,0.0,0.0,33.37,1.0,S01
-53.00000033985425,-0.9356429814746008,35.04545981068281,63.54572933844978,32.30548793553392,36.69104062036483,0.7589502375953778,0.0,0.488187,0.48935988721884455,-0.0011728872188383555,0.0,0.0,0.0,0.0,0.0,0.0,0.0,33.37,1.0,S01
-52.99996253925528,-0.21056292720453096,35.99206002672464,64.06612795289041,-13.210504563183905,39.527907824283034,0.7589502375953778,0.0,0.49075,0.48971204578845745,0.0010379542115490966,0.0,0.0,0.0,0.0,0.0,0.0,0.0,33.37,1.0,S01
-53.20981150208424,-0.039986920935635474,35.79319331307702,64.12829583412056,-2.698564672931224,43.361933757726725,0.7589502375953778,0.0,0.49075,0.4900718045528589,0.0006781954471478937,0.0,0.0,0.0,0.0,0.0,0.0,0.0,33.37,1.0,S01
-52.99976244083296,0.000769388826084994,35.05081309702896,63.54159518094855,13.26820655550441,48.0,0.5099186028123031,1.0,0.49075,0.49043938149512134,0.0003106185048857229,0.0,0.0,0.0,0.0,0.0,0.0,0.0,33.37,1.0,S01
-52.99999999372737,-0.04002181610087394,35.06984731467547,63.55230752502631,-11.128711228309982,56.410446378959065,0.5099186028123031,0.0,0.488187,0.49081500809249057,-0.002628008092483398,0.0,0.0,0.0,0.0,0.0,0.0,0.0,33.37,1.0,S01
-52.999999999999844,-0.8910120222596486,35.97185387511113,64.06066010927567,-19.0539627191684,70.48368433233048,0.5099186028123031,0.0,0.489468,0.4911989000262117,-0.0017309000262043805,0.0,0.0,0.0,0.0,0.0,0.0,0.0,33.37,1.0,S01
-53.0,-0.03950487874639764,35.03427305925578,63.53268331674603,17.051481016643066,80.0,0.9097844489846846,1.0,0.49075,0.49159122147461165,-0.0008412214746043084,0.0,0.0,0.0,0.0,0.0,0.0,0.0,33.37,1.0,S01
-53.0,-0.9387494480709002,35.82450876727711,63.978720516613706,3.6066774174594607,77.06111617878763,0.9097844489846846,0.0,0.488187,0.4919920704702925,-0.0038050704702851284,0.0,0.0,0.0,0.0,0.0,0.0,0.0,33.37,1.0,S01
-52.99999999999991,0.08653406412312961,35.98780057293449,64.0634785054757,-24.24960812743414,70.82926829268293,0.9097844489846846,0.0,0.493312,0.4924014761550394,0.0009105238449680993,0.0,0.0,0.0,0.0,0.0,0.0,0.0,33.37,1.0,S01
-52.99999999626947,-0.16364809270980138,35.99998993060983,64.07047725206064,14.950142672653332,64.54678057928736,0.9097844489846846,0.0,0.489468,0.4928194018138697,-0.0033514018138619036,0.0,0.0,0.0,0.0,0.0,0.0,0.0,33.37,1.0,S01
-52.99986013973525,-0.8993166254439604,35.06571955241489,63.55626352259004,30.80625300272912,60.0,0.7113806670903,1.0,0.49075,0.4932457475816995,-0.002495747581691509,0.0,0.0,0.0,0.0,0.0,0.0,0.0,33.37,1.0,S01
-52.97164031570322,-0.09542583268559296,35.90049986018656,63.991012447351025,11.385813798834995,56.51300733267945,0.7113806670903,0.0,0.494594,0.4936803436730917,0.0009136563269164593,0.0,0.0,0.0,0.0,0.0,0.0,0.0,33.37,1.0,S01
-53.24099083807977,-0.07311249732496275,34.959999783821644,63.69309252770326,-8.99082539015889,53.183696193629686,0.7113806670903,0.0,0.49075,0.49412295551253227,-0.003372955512523818,0.0,0.0,0.0,0.0,0.0,0.0,0.0,33.37,1.0,S01
-53.13937866703217,0.11791856254246719,35.89324761946877,64.1259128167243,-41.54199332076567,50.472045716828184,0.7113806670903,0.0,0.494594,0.49457329770940023,2.070229060839677e-05,0.0,0.0,0.0,0.0,0.0,0.0,0.0,33.37,1.0,S01
-57.85370895666184,-1.2457506628586779,29.15918680494915,64.79862429004235,17.804008069506068,48.66473616473617,0.7113806670903,0.0,0.49075,0.4950310294026792,-0.004281029402670328,0.0,0.0,0.0,0.0,0.0,0.0,0.0,33.37,1.0,S01
-56.80146759596565,-2.0954823567730703,24.738850295422736,61.99039023350652,32.88154200514209,48.0,0.6234732979294274,1.0,0.493312,0.49549573404144015,-0.0021837340414312244,0.0,0.0,0.0,0.0,0.0,0.0,0.0,33.37,1.0,S01
-50.75348749453029,-5.491883192560563,35.843401168750155,62.37649141465182,14.11624842826615,48.0,0.6234732979294274,0.0,0.497156,0.4959669080406659,0.0011890919593432491,0.0,0.0,0.0,0.0,0.0,0.0,0.0,33.37,1.0,S01
-43.85665467730418,-4.157121159834182,41.712478541333326,60.66810267251681,-29.916564839499653,48.0,0.6234732979294274,0.0,0.493312,0.4964439797044073,-0.003131979704398011,0.0,0.0,0.0,0.0,0.0,0.0,0.0,33.37,1.0,S01
-48.74968021133705,-0.987906448217873,41.34781031668772,63.930811803408574,-71.8898673257485,48.0,0.6234732979294274,0.0,0.499719,0.4969263401214296,0.0027926598785798324,0.0,0.0,0.0,0.0,0.0,0.0,0.0,33.37,1.0,S01
-45.11292034421561,-0.9995491942978957,43.89781260372271,62.9538929055775,-6.233723853857202,48.0,0.6234732979294274,0.0,0.495875,0.4974133646834314,-0.0015383646834220008,0.0,0.0,0.0,0.0,0.0,0.0,0.0,33.34,1.0,S01
-43.96198179807292,-1.0132986583951435,45.98705716337536,63.62776158511907,103.67152714077005,48.0,0.7529517625278278,1.0,0.497156,0.4979044252438765,-0.0007484252438671919,0.0,0.0,0.0,0.0,0.0,0.0,0.0,33.34,1.0,S01
-44.22194996734579,0.023942707026368783,45.98967113088155,63.80149906463244,101.68736658472888,47.299270072992705,0.7529517625278278,0.0,0.501,0.49839888988119635,0.0026011101188128808,0.0,0.0,0.0,0.0,0.0,0.0,0.0,33.34,1.0,S01
-43.934379657777896,-0.009920983316238327,44.95816004510838,62.86068699100621,-21.24966744416089,45.633802816901415,0.7529517625278278,0.0,0.497156,0.49889612861114896,-0.0017401286111398554,0.0,0.0,0.0,0.0,0.0,0.0,0.0,33.34,1.0,S01
-43.861992673190684,-1.0348017152434057,45.031406239877704,62.87108050442429,-83.33480442782779,43.63636363636363,0.7529517625278278,0.0,0.498438,0.4993955189717313,-0.0009575189717221501,0.0,0.0,0.0,0.0,0.0,0.0,0.0,33.39,1.0,S01
-44.03963652395352,-1.106344148947762,44.999586225634566,62.97361624534653,-6.015572785126412,41.806451612903224,0.7529517625278278,0.0,0.498438,0.4998964240280769,-0.0014584240280677587,0.0,0.0,0.0,0.0,0.0,0.0,0.0,33.39,1.0,S01
-45.10613152458304,-1.126275717743549,44.862718695333605,63.62778580810429,-12.576529319962901,40.5,0.7529517625278278,0.0,0.499719,0.5003981672452965,-0.0006791672452872482,0.0,0.0,0.0,0.0,0.0,0.0,0.0,33.39,1.0,S01
-44.98062166902781,-0.13107865354046483,45.00018165355651,63.62617272945712,11.649408376285198,40.0,0.12288966904950645,1.0,0.503563,0.5009000378334789,0.0026629621665304006,0.0,0.0,0.0,0.0,0.0,0.0,0.0,33.39,1.0,S01
-45.166814805304654,0.09830895734196099,44.891973455368785,63.68155231325095,2.0544452245262077,45.95744680851064,0.12288966904950645,0.0,0.503563,0.501401329643224,0.0021616703567852794,0.0,0.0,0.0,0.0,0.0,0.0,0.0,33.37,1.0,S01
-43.92825146218247,-0.9618027248244596,44.99985839754145,62.893589473053595,-16.33518415097757,63.529411764705884,0.12288966904950645,0.0,0.504844,0.5019013922693244,0.0029426077306848506,0.0,0.0,0.0,0.0,0.0,0.0,0.0,33.37,1.0,S01
-43.99765307000354,0.1285251232451766,45.94812527473268,63.616351755175536,23.21537183418182,80.0,0.8704724702490108,1.0,0.504844,0.5023996638546201,0.002444336145389178,0.0,0.0,0.0,0.0,0.0,0.0,0.0,33.37,1.0,S01
-43.92932165805234,-0.8452155906446549,46.09188650785308,63.67858111315063,13.92681827788193,80.0,0.8704724702490108,0.0,0.502282,0.5028956734051075,-0.0006136734050982062,0.0,0.0,0.0,0.0,0.0,0.0,0.0,33.37,1.0,S01
-43.99953571915321,-1.1141110568838701,45.99982033341027,63.66462014065689,-34.925821422500725,80.0,0.8704724702490108,0.0,0.504844,0.5033890156951246,0.0014549843048844708,0.0,0.0,0.0,0.0,0.0,0.0,0.0,33.37,1.0,S01
-42.98711097209562,-0.8913004541705432,46.03847735660682,62.993868936124784,24.263092582676396,80.0,0.6295731321064667,1.0,0.501,0.5038793140444372,-0.0028793140444281534,0.0,0.0,0.0,0.0,0.0,0.0,0.0,33.37,1.0,S01
-44.00306746637164,-0.1370748841691331,46.00000101451637,63.65759050819809,19.737170869610345,76.03960396039604,0.6295731321064667,0.0,0.507407,0.5043661923521295,0.0030408076478795534,0.0,0.0,0.0,0.0,0.0,0.0,0.0,33.37,1.0,S01
-43.01560817623933,-0.1630125695537596,45.99999363824756,62.97911189107383,-28.710698905825037,68.57142857142857,0.6295731321064667,0.0,0.507407,0.5048492808355318,0.0025577191644772157,0.0,0.0,0.0,0.0,0.0,0.0,0.0,33.37,1.0,S01
-43.99258246632883,-0.8918047398822821,45.13920256961735,63.03721310759042,9.55477918636521,62.4390243902439,0.6295731321064667,0.0,0.504844,0.5053282524381197,-0.0004842524381107665,0.0,0.0,0.0,0.0,0.0,0.0,0.0,33.39,1.0,S01
-44.000459258563886,-0.956790141090299,45.85692180165747,63.55952438039445,30.340334201671283,60.0,0.7524168679783257,1.0,0.508688,0.505802841057886,0.0028851589421231777,0.0,0.0,0.0,0.0,0.0,0.0,0.0,33.39,1.0,S01
-43.99007880568314,-0.005246623584459946,45.97623223939879,63.63128940850095,2.072182896457183,64.15841584158416,0.7524168679783257,0.0,0.504844,0.5062728293928294,-0.0014288293928200648,0.0,0.0,0.0,0.0,0.0,0.0,0.0,33.39,1.0,S01
-43.999997394524556,-0.017074429413690986,45.99849347752835,63.65423367268296,-43.032477026814824,73.63636363636363,0.7524168679783257,0.0,0.50997,0.5067380369550142,0.0032319630449953365,0.0,0.0,0.0,0.0,0.0,0.0,0.0,33.39,1.0,S01
-43.912236856655554,0.06470889499593252,46.066878658822375,63.64311465007644,27.600382279540117,80.0,0.7263595868603673,1.0,0.506126,0.5071983174268956,-0.0010723174268860319,0.0,0.0,0.0,0.0,0.0,0.0,0.0,33.37,1.0,S01
-43.84480059328,-1.094768686940489,45.04083933059666,62.866861422748116,20.293014748524214,74.48275862068965,0.7263595868603673,0.0,0.507407,0.5076535531489835,-0.0002465531489738797,0.0,0.0,0.0,0.0,0.0,0.0,0.0,33.37,1.0,S01
-44.084896210384045,-1.0609462453952578,44.92990020796379,62.95474258158424,-17.854621123971118,63.529411764705884,0.7263595868603673,0.0,0.511251,0.5081036436823193,0.0031473563176904035,0.0,0.0,0.0,0.0,0.0,0.0,0.0,33.37,1.0,S01
-44.06470593661672,-0.8756093847197309,45.992139170325515,63.70040711437961,18.35986672564373,53.333333333333336,0.7263595868603673,0.0,0.511251,0.5085485189843942,0.0027024810156154287,0.0,0.0,0.0,0.0,0.0,0.0,0.0,33.37,1.0,S01
-42.99449562786476,-0.10719149589178392,45.99747252863169,62.962732019294556,10.4137225533259,45.95744680851064,0.7263595868603673,0.0,0.512532,0.5089881833145937,0.003543816685415694,0.0,0.0,0.0,0.0,0.0,0.0,0.0,33.37,1.0,S01
-43.00067344692903,-0.1568254695119329,46.89441623933378,63.62522130055979,-24.199365748709806,41.53846153846153,0.7263595868603673,0.0,0.507407,0.5094227379635652,-0.0020157379635560536,0.0,0.0,0.0,0.0,0.0,0.0,0.0,33.37,1.0,S01
-43.00000223442678,-0.06429497036023293,45.905532506518746,62.899302386520716,20.492671018755566,40.0,0.5986848181118747,1.0,0.512532,0.5098523553246667,0.002679644675342075,0.0,0.0,0.0,0.0,0.0,0.0,0.0,33.37,1.0,S01
-43.082967149197,-0.976987888962452,47.000009328101584,63.76595832068709,-6.628343350570876,45.95744680851064,0.5986848181118747,0.0,0.513814,0.510277253161268,0.003536746838740389,0.0,0.0,0.0,0.0,0.0,0.0,0.0,33.37,1.0,S01
-43.0027155759967,-1.1069289308323138,47.00000000025007,63.71388262059917,-16.726632219681296,63.529411764705884,0.5986848181118747,0.0,0.508688,0.5106977057054866,-0.002009705705478467,0.0,0.0,0.0,0.0,0.0,0.0,0.0,33.34,1.0,S01
-42.14492283410809,0.08044168709168428,47.000000159601406,63.12844847262191,15.597484515770358,80.0,0.6066596247158356,1.0,0.513814,0.5111140457753791,0.0026999542246284075,0.0,0.0,0.0,0.0,0.0,0.0,0.0,33.34,1.0,S01
-41.959808193967916,0.023798391428981873,47.00597259467253,63.009424133292285,-20.203777712233517,80.0,0.6066596247158356,0.0,0.50997,0.5115266395792629,-0.0015566395792560406,0.0,0.0,0.0,0.0,0.0,0.0,0.0,33.34,1.0,S01
-41.90856661089513,-0.08678173523755417,46.99935969632804,62.97043193685612,0.38400467262900895,80.0,0.6066596247158356,0.0,0.50997,0.5119358616785863,-0.0019658616785799858,0.0,0.0,0.0,0.0,0.0,0.0,0.0,33.34,1.0,S01
-42.90754369242208,-0.13007517262149082,46.999999983132234,63.64019346043876,22.479301380544513,80.0,0.8574895895659667,1.0,0.50997,0.512342060933064,-0.0023720609330581833,0.0,0.0,0.0,0.0,0.0,0.0,0.0,33.37,1.0,S01
-42.12524159799489,-0.0070492968073901235,46.99999999999956,63.11525987732272,10.65363647081646,74.81296758104737,0.8574895895659667,0.0,0.512532,0.5127455265700953,-0.00021352657009003542,0.0,0.0,0.0,0.0,0.0,0.0,0.0,33.37,1.0,S01
-43.010259778939854,1.3951234677580827e-06,47.00000000000001,63.70935917313793,-8.50441280211365,64.79481641468684,0.8574895895659667,0.0,0.516376,0.513146497112829,0.003229502887175728,0.0,0.0,0.0,0.0,0.0,0.0,0.0,33.37,1.0,S01
-43.05899262131841,0.05913812781421557,47.00000000000001,63.74229634144753,-38.841325479739815,55.865921787709496,0.8574895895659667,0.0,0.511251,0.5135452060527042,-0.00229420605269994,0.0,0.0,0.0,0.0,0.0,0.0,0.0,33.37,1.0,S01
-42.12033893150141,-0.9616607450955075,47.000000000000014,63.119313550554494,14.911042110549376,50.08347245409015,0.8574895895659667,0.0,0.513814,0.513941903195801,-0.0001279031957974598,0.0,0.0,0.0,0.0,0.0,0.0,0.0,33.37,1.0,S01
-42.89568388787577,-0.12035021541773955,47.00000000000001,63.63217881216167,28.97765834418199,48.0,0.6312625023852085,1.0,0.512532,0.5143368303001824,-0.0018048303001793882,0.0,0.0,0.0,0.0,0.0,0.0,0.0,33.37,1.0,S01
-41.89666806801668,-1.0815552989340604,47.00000000000001,62.9722205187829,8.817094453707568,48.0,0.6312625023852085,0.0,0.512532,0.5147301906799744,-0.0021981906799719265,0.0,0.0,0.0,0.0,0.0,0.0,0.0,33.37,1.0,S01
-42.021695292118345,-0.8908242996656777,47.00000000000001,63.05248958729954,-6.381654903050672,48.0,0.6312625023852085,0.0,0.517658,0.5151221402464125,0.0025358597535895012,0.0,0.0,0.0,0.0,0.0,0.0,0.0,33.37,1.0,S01
-41.9134649083133,-0.969584648279494,47.0,62.98157377368868,-33.53356056028864,48.0,0.6312625023852085,0.0,0.513814,0.5155128060955421,-0.0016988060955404462,0.0,0.0,0.0,0.0,0.0,0.0,0.0,33.34,1.0,S01
-42.0059622140746,0.07637977941651591,47.00000000000001,63.03575727633457,18.3088976121822,48.0,0.6312625023852085,0.0,0.515095,0.5159023082100879,-0.0008073082100865587,0.0,0.0,0.0,0.0,0.0,0.0,0.0,33.34,1.0,S01
-41.96992396457799,-1.0770845001466096,47.00000000000001,63.02090628206575,34.04813592529967,48.0,0.6053398066783786,1.0,0.513814,0.5162907476190359,-0.0024767476190349497,0.0,0.0,0.0,0.0,0.0,0.0,0.0,33.34,1.0,S01
-42.083295636868,-1.0847367644385404,47.0,63.096595989864284,-6.619479330921915,53.553719008264466,0.6053398066783786,0.0,0.516376,0.5166781793290292,-0.00030217932902855014,0.0,0.0,0.0,0.0,0.0,0.0,0.0,33.34,1.0,S01
-42.97147710251181,-0.9674642166755445,47.00000000000001,63.690531724756745,-36.57068619642283,68.21052631578947,0.6053398066783786,0.0,0.518939,0.5170646127760239,0.0018743872239764712,0.0,0.0,0.0,0.0,0.0,0.0,0.0,33.34,1.0,S01
-41.92376834437928,-0.9650552900286467,47.00000000000001,62.988361495644504,21.1060293008876,80.0,0.7247028948638568,1.0,0.515095,0.5174500397974848,-0.002355039797484972,0.0,0.0,0.0,0.0,0.0,0.0,0.0,33.34,1.0,S01
-42.00742941378997,0.10910438045637044,47.00000000000001,63.03678314857431,16.860832892760868,76.03960396039604,0.7247028948638568,0.0,0.516376,0.51783444432453,-0.0014584443245305922,0.0,0.0,0.0,0.0,0.0,0.0,0.0,33.34,1.0,S01
-42.008859267057176,0.1015239109983534,46.99999999999993,63.03772334105915,-14.204083787063121,68.57142857142857,0.7247028948638568,0.0,0.516376,0.5182177754709358,-0.0018417754709370137,0.0,0.0,0.0,0.0,0.0,0.0,0.0,33.34,1.0,S01
-41.9772199969316,0.08020320018644286,46.99999999727335,63.01661234125339,-34.88002719607121,62.4390243902439,0.7247028948638568,0.0,0.517658,0.5185999237144708,-0.0009419237144725506,0.0,0.0,0.0,0.0,0.0,0.0,0.0,33.33,1.0,S01
-41.898521630839454,0.006639385389839965,46.999898099073675,62.964089608718,17.85275637348755,60.0,0.8375148992143033,1.0,0.521502,0.5189807307140246,0.002521269285973153,0.0,0.0,0.0,0.0,0.0,0.0,0.0,33.33,1.0,S01
-41.959020304713434,0.10100113319261239,47.027903555389386,63.02533854708966,9.279980890393322,60.0,0.8375148992143033,0.0,0.517658,0.5193600236061073,-0.0017020236061101614,0.0,0.0,0.0,0.0,0.0,0.0,0.0,33.33,1.0,S01
-42.0079322625848,-0.00221747388172586,47.00010119654575,63.03709931762918,-18.125889050423147,60.0,0.8375148992143033,0.0,0.522783,0.5197376432426437,0.003045356757353193,0.0,0.0,0.0,0.0,0.0,0.0,0.0,33.33,1.0,S01
-42.000000208692875,-0.014697592151418352,46.97266279281773,63.01135836813217,-7.157140762013592,60.0,0.8375148992143033,0.0,0.517658,0.5201134511055783,-0.0024554511055816224,0.0,0.0,0.0,0.0,0.0,0.0,0.0,33.34,1.0,S01
-42.00000190475391,-0.9756062908052896,47.97558437221425,63.76996678287859,18.959053906659303,60.0,0.9382263465000065,1.0,0.518939,0.5204873149089941,-0.0015483149089975373,0.0,0.0,0.0,0.0,0.0,0.0,0.0,33.34,1.0,S01
-42.07115395119073,-1.0022306255446924,46.92846938902031,63.03386153654072,1.5956429246917976,60.0,0.9382263465000065,0.0,0.521502,0.5208590790044222,0.0006429209955741803,0.0,0.0,0.0,0.0,0.0,0.0,0.0,33.34,1.0,S01
-42.00132200619258,-0.04320833153263068,47.0071395056502,63.037957467953,-20.96124218684066,60.0,0.9382263465000065,0.0,0.522783,0.5212285592892905,0.0015544407107055934,0.0,0.0,0.0,0.0,0.0,0.0,0.0,33.34,1.0,S01
-41.99811673858183,-1.0250711505516692,47.00000018771998,63.038818184487866,14.892640673108676,60.0,0.9382263465000065,0.0,0.522783,0.5215955778903159,0.0011874221096800743,0.0,0.0,0.0,0.0,0.0,0.0,0.0,33.37,1.0,S01
-41.999999950488,-0.9771875764258202,47.000000000188216,63.039312269552916,24.531881568888327,60.0,0.5953324688732408,1.0,0.52022,0.5219599887710565,-0.0017399887710606778,0.0,0.0,0.0,0.0,0.0,0.0,0.0,33.37,1.0,S01
-41.99999999999871,-0.11176455989155352,47.00000684369978,63.03184222775474,-4.734312240282598,64.15841584158416,0.5953324688732408,0.0,0.521502,0.522321660683317,-0.0008196606833212037,0.0,0.0,0.0,0.0,0.0,0.0,0.0,33.37,1.0,S01
-42.00000000013208,-0.04391097756971579,47.97816097832884,63.76445607897461,-37.81538767757311,73.63636363636363,0.5953324688732408,0.0,0.521502,0.5226804419016343,-0.0011784419016385207,0.0,0.0,0.0,0.0,0.0,0.0,0.0,33.37,1.0,S01
-42.00000493110748,-1.012167428540429,46.99999070221561,63.039860589350965,32.105132884191924,80.0,0.8426976017947527,1.0,0.522783,0.5230361433881858,-0.00025314338818983916,0.0,0.0,0.0,0.0,0.0,0.0,0.0,33.34,1.0,S01
-42.911609762721056,-0.08344837523568599,46.999999999755666,63.64285675577754,11.945043106815271,76.03960396039604,0.8426976017947527,0.0,0.524064,0.5233885464924299,0.000675453507566123,0.0,0.0,0.0,0.0,0.0,0.0,0.0,33.34,1.0,S01
-42.00002531946771,-0.9958883517686836,47.0,63.0396218298073,-16.72703436197536,68.57142857142857,0.8426976017947527,0.0,0.521502,0.5237374168693278,-0.0022354168693316454,0.0,0.0,0.0,0.0,0.0,0.0,0.0,33.34,1.0,S01
-42.017733474365116,0.0001289853788449407,47.00000000000001,63.04355578756183,-41.63549636869096,62.4390243902439,0.8426976017947527,0.0,0.522783,0.5240825002051778,-0.0012995002051814867,0.0,0.0,0.0,0.0,0.0,0.0,0.0,33.34,1.0,S01
-42.0423395202818,-0.9320942519959508,47.00000000000004,63.066846377738415,22.80419915009828,60.0,0.8545610108203471,1.0,0.522783,0.5244234997624626,-0.001640499762466348,0.0,0.0,0.0,0.0,0.0,0.0,0.0,33.33,1.0,S01
-41.999912739407165,-0.9153338905534867,47.00000000175089,63.03832569487863,17.519278539600748,60.0,0.8545610108203471,0.0,0.524064,0.5247600632279347,-0.0006960632279383648,0.0,0.0,0.0,0.0,0.0,0.0,0.0,33.33,1.0,S01
-41.9999106350571,0.0046149390249213915,47.00006532728008,63.03172737137258,-7.263269846391303,60.0,0.8545610108203471,0.0,0.526627,0.5250917941412719,0.0015352058587243893,0.0,0.0,0.0,0.0,0.0,0.0,0.0,33.33,1.0,S01
-42.01857599782134,-0.0014367844410936976,47.06422662196825,63.09201342858715,-50.97409206461914,60.0,0.8545610108203471,0.0,0.526627,0.5254182848696117,0.0012087151303846566,0.0,0.0,0.0,0.0,0.0,0.0,0.0,33.33,1.0,S01
-42.04033164978363,0.017207901381411754,47.000001664335755,63.05862302479522,23.501583320673166,60.0,0.7728627074089024,1.0,0.52919,0.5257391589317375,0.003450841068259097,0.0,0.0,0.0,0.0,0.0,0.0,0.0,33.37,1.0,S01
-43.0687011982951,0.0016439565144784802,47.000000000043705,63.748827641100405,15.51253437427468,60.0,0.7728627074089024,0.0,0.522783,0.5260540952030245,-0.003271095203027719,0.0,0.0,0.0,0.0,0.0,0.0,0.0,33.37,1.0,S01
-41.988302823654486,-1.0677642610985025,47.000000000000014,63.03298893855654,-12.824454312259313,60.0,0.7728627074089024,0.0,0.525346,0.5263628034763465,-0.0010168034763493464,0.0,0.0,0.0,0.0,0.0,0.0,0.0,33.37,0.0,S01
-42.98256541053312,-0.06547654583707527,47.00000000000001,63.69069960715468,-41.13320802514006,60.0,0.7728627074089024,0.0,0.525346,0.5266649697124841,-0.001318969712486815,0.0,0.0,0.0,0.0,0.0,0.0,0.0,33.37,0.0,S01
-43.00526431416228,-0.01640052608684015,47.00000000000001,63.70598894694451,26.45426803614223,60.0,0.8753457069722941,1.0,0.526627,0.5269602290097022,-0.00033322900970475923,0.0,0.0,0.0,0.0,0.0,0.0,0.0,33.34,0.0,S01
-42.902494503993154,2.712238983830403e-05,47.00000000000001,63.636656375597696,7.335785646720418,60.0,0.8753457069722941,0.0,0.530471,0.5272481846234303,0.003222815376567384,0.0,0.0,0.0,0.0,0.0,0.0,0.0,33.34,0.0,S01
-42.090519892423735,0.009518692707411756,47.00000000000001,63.092091068691246,-20.58638192011607,60.0,0.8753457069722941,0.0,0.526627,0.5275284486210303,-0.0009014486210325587,0.0,0.0,0.0,0.0,0.0,0.0,0.0,33.34,0.0,S01
-42.0184940469149,-0.0003776942119017591,47.00000000000001,63.04406270310692,-7.357256883173275,60.0,0.8753457069722941,0.0,0.526627,0.5278006614413667,-0.0011736614413686208,0.0,0.0,0.0,0.0,0.0,0.0,0.0,33.34,0.0,S01
-42.07413967604949,0.02075833482233127,47.0,63.081167240216686,21.030133669111557,60.0,0.9462582639833734,1.0,0.526627,0.5280644659474095,-0.0014374659474109522,0.0,0.0,0.0,0.0,0.0,0.0,0.0,33.33,0.0,S01
-43.00305854833742,0.04685862100031868,47.00000000000001,63.704515069515274,5.226871042147361,64.15841584158416,0.9462582639833734,0.0,0.526627,0.5283194695726796,-0.0016924695726806699,0.0,0.0,0.0,0.0,0.0,0.0,0.0,33.33,0.0,S01
-41.928304246246235,-0.0003115466256667567,47.000000000000014,62.98398762433872,-24.44748806409056,73.63636363636363,0.9462582639833734,0.0,0.531752,0.5285652373228925,0.0031867626771070684,0.0,0.0,0.0,0.0,0.0,0.0,0.0,33.33,0.0,S01
-41.92694061921908,0.042123267189485725,47.00000000000001,62.98309395430778,20.9550788477987,80.0,0.7226730766939037,1.0,0.527908,0.5288013217532567,-0.0008933217532565395,0.0,0.0,0.0,0.0,0.0,0.0,0.0,33.33,0.0,S01
-42.98479629646884,-0.09028235819713004,47.000000000000014,63.69223550444061,17.93324095026822,76.03960396039604,0.7226730766939037,0.0,0.533034,0.5290273024585774,0.004006697541423113,0.0,0.0,0.0,0.0,0.0,0.0,0.0,33.34,0.0,S01
-41.92563286152258,0.0555681009653444,47.00000000000001,62.98223383346313,-7.114225919791318,68.57142857142857,0.7226730766939037,0.0,0.527908,0.5292428076159917,-0.001334807615990904,0.0,0.0,0.0,0.0,0.0,0.0,0.0,33.34,0.0,S01
-41.99547777534108,0.07833775397908643,47.00000000000001,63.028773511649945,-37.29535212872076,62.4390243902439,0.7226730766939037,0.0,0.52919,0.5294475084331542,-0.0002575084331531523,0.0,0.0,0.0,0.0,0.0,0.0,0.0,33.34,0.0,S01
-42.99181329015535,0.018701966412678805,47.00000000000001,63.696910127094284,18.925559520130967,60.0,0.787748784596078,1.0,0.534315,0.5296411017795446,0.004673898220456597,0.0,0.0,0.0,0.0,0.0,0.0,0.0,33.34,0.0,S01
-43.03841915173515,0.06671694742137424,47.00000000000001,63.728407905984255,10.31071032086051,60.0,0.787748784596078,0.0,0.530471,0.5298233237631672,0.0006476762368345019,0.0,0.0,0.0,0.0,0.0,0.0,0.0,33.34,0.0,S01
-42.01410563460114,-0.998011187996111,47.00000000000001,63.049037253607516,-22.2920305489599,60.0,0.787748784596078,0.0,0.534315,0.5299939881562011,0.004321011843801063,0.0,0.0,0.0,0.0,0.0,0.0,0.0,33.34,0.0,S01
-41.99593715950854,-0.015128108357451597,47.00000000000001,63.02903272909281,-4.291890510510238,60.0,0.787748784596078,0.0,0.534315,0.53015301303727,0.0041619869627326,0.0,0.0,0.0,0.0,0.0,0.0,0.0,33.34,0.0,S01
-42.086057494683054,-0.004800911792372369,47.00000000000001,63.08911362901306,18.77734473810011,60.0,0.8827951337878326,1.0,0.535596,0.5303004478723984,0.0052955521276045435,0.0,0.0,0.0,0.0,0.0,0.0,0.0,33.34,0.0,S01
-42.999518142539046,0.03684855870976142,47.00000000000001,63.702118632796065,1.6649869867428384,60.0,0.8827951337878326,0.0,0.535596,0.5304365071426174,0.00515949285738584,0.0,0.0,0.0,0.0,0.0,0.0,0.0,33.34,0.0,S01
-41.94876918021545,-0.06093896945926227,47.00000000000001,62.99764241059337,-25.699669362044855,60.0,0.8827951337878326,0.0,0.531752,0.5305615830344451,0.0011904169655583747,0.0,0.0,0.0,0.0,0.0,0.0,0.0,33.34,0.0,S01
-41.93703724527463,-0.9883666259585603,47.00000000000001,62.99755520255418,14.429611311984326,60.0,0.8827951337878326,0.0,0.535596,0.5306762249741125,0.004919775025891216,0.0,0.0,0.0,0.0,0.0,0.0,0.0,33.34,0.0,S01
-42.010562848340236,-0.07722964337347828,47.0,63.03882418995583,22.195906940002633,60.0,0.5917440895328359,1.0,0.535596,0.5307811195799554,0.004814880420048453,0.0,0.0,0.0,0.0,0.0,0.0,0.0,33.34,0.0,S01
-41.98703047788018,0.0372175345099576,47.00000000000001,63.02310777401662,-3.3501832768099273,64.15841584158416,0.5917440895328359,0.0,0.533034,0.5308770984936558,0.0021569015063480843,0.0,0.0,0.0,0.0,0.0,0.0,0.0,33.34,0.0,S01
-41.9837528910706,-1.0347983488723862,47.00000000000001,63.02940833009071,-35.51846723006162,73.63636363636363,0.5917440895328359,0.0,0.535596,0.5309651435300754,0.004630856469928546,0.0,0.0,0.0,0.0,0.0,0.0,0.0,33.34,0.0,S01
-41.99635928560433,0.00018559735889619284,47.000000000000135,63.02931217520959,18.6337599733359,80.0,0.7417946404384026,1.0,0.531752,0.531046370788278,0.0007056292117259325,0.0,0.0,0.0,0.0,0.0,0.0,0.0,33.34,0.0,S01
-42.0106558546782,0.01150693677418273,47.000000004741985,63.03883991790734,2.953962846154331,76.03960396039604,0.7417946404384026,0.0,0.535596,0.5311220120026738,0.004473987997329903,0.0,0.0,0.0,0.0,0.0,0.0,0.0,33.34,0.0,S01
-43.98892533081461,-1.0001470676232522,47.00017606000396,64.38200366242285,-15.980114409884772,68.57142857142857,0.7417946404384026,0.0,0.536878,0.5311934144727435,0.005684585527260108,0.0,0.0,0.0,0.0,0.0,0.0,0.0,33.34,0.0,S01
-43.00427721660564,0.0030439052510271014,47.01146423134105,63.71377902277249,18.429356658662645,62.4390243902439,0.7417946404384026,0.0,0.534315,0.5312620686919436,0.0030529313080598993,0.0,0.0,0.0,0.0,0.0,0.0,0.0,33.34,0.0,S01
-38.219985089563096,-1.0416131352704825,50.753559428001346,63.543497014105675,19.492314525833283,60.0,0.39768532888020014,1.0,0.538159,0.5313296361378845,0.006829363862118967,0.0,0.0,0.0,0.0,0.0,0.0,0.0,33.34,0.0,S01
-52.78461787684185,-1.0483313379958854,39.08334329544845,65.68730932340213,-10.437450693234515,64.15841584158416,0.39768532888020014,0.0,0.533034,0.5313979557857589,0.0016360442142443398,0.0,0.0,0.0,0.0,0.0,0.0,0.0,33.34,0.0,S01
-54.11347580019751,0.7373251315887766,52.684320346918646,75.52780628314966,-12.56379739307467,73.63636363636363,0.39768532888020014,0.0,0.538159,0.5314690384443478,0.006689961555655255,0.0,0.0,0.0,0.0,0.0,0.0,0.0,33.33,0.0,S01
-45.56729491345065,-4.013320612579644,27.639101289673246,53.4453461787793,14.484967437056836,80.0,0.536093612813558,1.0,0.533034,0.5315450580073923,0.001488941992610504,0.0,0.0,0.0,0.0,0.0,0.0,0.0,33.33,0.0,S01
-37.16201401826184,-57.15958286569626,30.268339588608587,74.59494339916894,-26.817570667080496,77.06111617878763,0.536093612813558,0.0,0.536878,0.5316283425965066,0.005249657403495743,0.0,0.0,0.0,0.0,0.0,0.0,0.0,33.33,0.0,S01
-69.13866414207136,-39.387789968546286,5.708495453991333,79.77555890311706,-14.824667192369892,70.82926829268293,0.536093612813558,0.0,0.536878,0.5317213716206514,0.0051566283793505665,0.0,0.0,0.0,0.0,0.0,0.0,0.0,33.33,0.0,S01
-42.909043812849774,-35.66273810771315,7.386325860079048,56.28121125192376,51.86827253493016,64.54678057928736,0.536093612813558,0.0,0.533034,0.5318267817161325,0.001207218283869293,0.0,0.0,0.0,0.0,0.0,0.0,0.0,33.33,0.0,S01
-56.75208877950302,-38.00313723910994,6.908343229609263,68.64956829455889,87.51535658559774,60.0,0.4578004815265808,1.0,0.531752,0.5319473478811069,-0.00019534788110510837,0.0,0.0,0.0,0.0,0.0,0.0,0.0,33.33,0.0,S01
-49.19845454041417,-48.11657815038305,17.459365292481134,70.9966369519248,-6.230601106717205,56.51300733267945,0.4578004815265808,0.0,0.52919,0.5320859152758537,-0.002895915275852203,0.0,0.0,0.0,0.0,0.0,0.0,0.0,33.33,0.0,S01
-30.43657052625717,-44.663291412729805,5.744662052703513,54.35251206078724,-29.300474245522743,53.183696193629686,0.4578004815265808,0.0,0.527908,0.5322453121229963,-0.004337312122995002,0.0,0.0,0.0,0.0,0.0,0.0,0.0,33.33,0.0,S01
-44.52511849016995,-51.91386993057127,2.701032468176275,68.44582999808016,-45.30197668861416,50.472045716828184,0.4578004815265808,0.0,0.530471,0.5324282802448969,-0.001957280244895725,0.0,0.0,0.0,0.0,0.0,0.0,0.0,33.34,0.0,S01
-33.94497169975095,-55.21778405428639,0.825464748389793,64.82242028506442,12.488334019555815,48.66473616473617,0.4578004815265808,0.0,0.526627,0.5326374383974856,-0.006010438397484464,0.0,0.0,0.0,0.0,0.0,0.0,0.0,33.34,0.0,S01
-37.98696369866569,-55.99573849281107,7.060154981874761,68.03218303690629,99.93498718169596,48.0,0.7618055420143515,1.0,0.531752,0.5328752691362642,-0.0011232691362628392,0.0,0.0,0.0,0.0,0.0,0.0,0.0,33.34,0.0,S01
-35.92519820933456,-54.00611167065877,5.994579721269078,65.13996430915732,-5.333481282588474,49.002709553360724,0.7618055420143515,0.0,0.52919,0.5331441199544688,-0.003954119954467464,0.0,0.0,0.0,0.0,0.0,0.0,0.0,33.34,0.0,S01
-36.930851089531096,-53.01856614549181,5.963686437495513,64.88776213004867,-37.68855279254609,51.681415929203546,0.7618055420143515,0.0,0.527908,0.533446209438298,-0.005538209438296835,0.0,0.0,0.0,0.0,0.0,0.0,0.0,33.34,0.0,S01
-35.92348766179179,-53.967260197765796,5.031599543173534,65.02521920765147,-33.80186803610912,55.58045008426687,0.7618055420143515,0.0,0.530471,0.5337836139210124,-0.0033126139210114904,0.0,0.0,0.0,0.0,0.0,0.0,0.0,33.34,0.0,S01
-37.997034489600495,-53.038485523152374,2.062062391677526,65.27716046137964,17.468661672056935,60.0,0.9709375480717909,1.0,0.526627,0.5341582406569222,-0.007531240656921364,0.0,0.0,0.0,0.0,0.0,0.0,0.0,33.34,0.0,S01
-37.034550669158605,-53.00992458641781,3.968488788210499,64.78702764586697,1.2910362060662548,66.42887234938912,0.9709375480717909,0.0,0.527908,0.5345717996520845,-0.006663799652083493,0.0,0.0,0.0,0.0,0.0,0.0,0.0,33.34,0.0,S01
-37.97441307407441,-53.00074331863663,0.03485971694318882,65.20073662044244,-21.857130073695256,75.10955859002857,0.9709375480717909,0.0,0.527908,0.5350257679717865,-0.00711776797178537,0.0,0.0,0.0,0.0,0.0,0.0,0.0,33.34,0.0,S01
-39.026948778565256,-52.03008045107931,-2.0265135633882894,65.07179696253314,54.96730057253742,80.0,0.7014043113511094,1.0,0.52919,0.5355213647811287,-0.006331364781127487,0.0,0.0,0.0,0.0,0.0,0.0,0.0,33.34,0.0,S01
-39.98559395716044,-52.042914556546734,-2.007562950769774,65.66081775799196,-33.59524509187783,75.71271080660004,0.7014043113511094,0.0,0.531752,0.5360595553884606,-0.004307555388459004,0.0,0.0,0.0,0.0,0.0,0.0,0.0,33.34,0.0,S01
-38.99668830578112,-51.99995123682072,-2.0135361351315404,65.02915465556552,-40.765772951703354,66.85922552719022,0.7014043113511094,0.0,0.527908,0.5366410689745708,-0.008733068974568737,0.0,0.0,0.0,0.0,0.0,0.0,0.0,33.34,0.0,S01
-38.992950932711466,-52.00219404189994,-2.000623036225413,65.02830845212978,5.6546642848744755,58.18960989853581,0.7014043113511094,0.0,0.533034,0.537266402484474,-0.004232402484471687,0.0,0.0,0.0,0.0,0.0,0.0,0.0,33.34,0.0,S01
-39.96834235953962,-51.00539968200195,-4.001578685808298,64.92327640891861,12.733644926853096,51.7296116232889,0.7014043113511094,0.0,0.52919,0.5379358106610679,-0.008745810661065142,0.0,0.0,0.0,0.0,0.0,0.0,0.0,33.34,0.0,S01
-36.98868201297911,-50.9620765340697,-1.0151064820448328,62.97877644803487,18.716750401788804,48.0,0.052614221037447576,1.0,0.534315,0.5386493005251138,-0.004334300525110989,0.0,0.0,0.0,0.0,0.0,0.0,0.0,33.34,0.0,S01
-37.924486164736244,-49.99701324902058,-5.990202219291524,63.03848433544398,12.753319685160868,45.80557079606497,0.052614221037447576,0.0,0.533034,0.5394066363901435,-0.0063726363901403975,0.0,0.0,0.0,0.0,0.0,0.0,0.0,33.34,0.0,S01
-42.07753352073859,-50.0059036315799,-9.001479792681401,65.97071974488217,-33.24509491162377,43.86724668849895,0.052614221037447576,0.0,0.52919,0.5402073401437713,-0.0110173401437677,0.0,0.0,0.0,0.0,0.0,0.0,0.0,33.37,0.0,S01
-41.99144595782266,-49.94141719176274,-9.000289330094606,65.86677381484424,5.556930965137737,42.26319135410045,0.052614221037447576,0.0,0.535596,0.5410506623805901,-0.005454662380586253,0.0,0.0,0.0,0.0,0.0,0.0,0.0,33.37,0.0,S01
-41.94870935289187,-48.02466859658035,-9.949355585772755,64.53721939127,-24.494085428849594,41.04923731333043,0.052614221037447576,0.0,0.534315,0.5419355549369748,-0.007620554936970844,0.0,0.0,0.0,0.0,0.0,0.0,0.0,33.37,0.0,S01
-37.99037179925545,-50.99798378404955,-8.969912037221452,64.22244172747821,33.46548625748394,40.27508834913334,0.052614221037447576,0.0,0.531752,0.5428606723381358,-0.011108672338131897,0.0,0.0,0.0,0.0,0.0,0.0,0.0,33.37,0.0,S01
-42.00246003850768,-49.00154554569063,-9.970927418281637,65.30526402008853,97.54515460789723,40.0,0.7162347845765428,1.0,0.535596,0.5438243564000488,-0.008228356400045085,0.0,0.0,0.0,0.0,0.0,0.0,0.0,33.37,0.0,S01
-39.97777938945276,-49.955765116010504,-11.010058824212335,64.92320624052991,-7.500840284409069,45.95744680851064,0.7162347845765428,0.0,0.530471,0.5448245918247598,-0.014353591824756375,0.0,0.0,0.0,0.0,0.0,0.0,0.0,33.37,0.0,S01
-39.95697332763785,-50.97447682097725,-11.026721993240386,65.7004231538437,-27.780135909411513,63.529411764705884,0.7162347845765428,0.0,0.535596,0.545858960334387,-0.010262960334383783,0.0,0.0,0.0,0.0,0.0,0.0,0.0,33.37,0.0,S01
-41.00540249058492,-49.01578494204574,-10.972142316367226,64.84117606822352,6.330809510389141,80.0,0.3050288006073773,1.0,0.531752,0.5469245995268873,-0.015172599526884321,0.0,0.0,0.0,0.0,0.0,0.0,0.0,33.37,0.0,S01
-40.04590654236719,-50.001012315365294,-12.004824357403903,65.17585190247564,-6.071747309095854,74.81296758104737,0.3050288006073773,0.0,0.536878,0.5480181726519344,-0.011140172651931575,0.0,0.0,0.0,0.0,0.0,0.0,0.0,33.37,0.0,S01
-40.99845721356448,-49.00364183255013,-11.996330226849228,65.00878668039384,-8.876276330683792,64.79481641468684,0.3050288006073773,0.0,0.542003,0.5491358707948978,-0.0071328707948947,0.0,0.0,0.0,0.0,0.0,0.0,0.0,33.37,0.0,S01
-40.002788929397305,-50.02060632619643,-12.005114205708693,65.16446076246118,0.13194907798795108,55.865921787709496,0.3050288006073773,0.0,0.547128,0.550273481182712,-0.0031454811827087894,0.0,0.0,0.0,0.0,0.0,0.0,0.0,33.37,0.0,S01
-42.00576643997203,-49.00444327290321,-11.97890047963141,65.64612655288644,-14.765241771858273,50.08347245409015,0.3050288006073773,0.0,0.554816,0.55142652480109,0.0033894751989134043,0.0,0.0,0.0,0.0,0.0,0.0,0.0,33.37,0.0,S01
-39.995517452914115,-49.997802392018855,-10.984671537704386,64.96217875925173,9.323025181729493,48.0,0.6620744235678374,1.0,0.554816,0.5525904207340665,0.0022255792659372827,0.0,0.0,0.0,0.0,0.0,0.0,0.0,33.39,0.0,S01
-39.99896432339175,-50.01311640809706,-11.996135983969928,65.15471002421646,5.701831955682227,53.553719008264466,0.6620744235678374,0.0,0.557379,0.553760619385492,0.0036183806145121053,0.0,0.0,0.0,0.0,0.0,0.0,0.0,33.39,0.0,S01
-41.00485717282092,-49.0029301678719,-10.989682431851913,64.83408514626953,-17.525456243172716,68.21052631578947,0.6620744235678374,0.0,0.55866,0.5549326711680016,0.0037273288320030153,0.0,0.0,0.0,0.0,0.0,0.0,0.0,33.39,0.0,S01
-39.02010657726194,-50.012610361190404,-10.982918682225844,64.37743715947005,8.217094437391063,80.0,0.5614664240287158,1.0,0.562504,0.5561022583080981,0.006401741691906861,0.0,0.0,0.0,0.0,0.0,0.0,0.0,33.39,0.0,S01
-40.992086602704376,-49.007856944095494,-11.004612348280435,64.83226588075162,0.2718195858742972,80.0,0.5614664240287158,0.0,0.571474,0.5572652510042528,0.014208748995752366,0.0,0.0,0.0,0.0,0.0,0.0,0.0,33.41,0.0,S01
-39.990433012521116,-48.01584526006766,-10.98587326144994,63.44639895127494,-19.115244273113056,80.0,0.5614664240287158,0.0,0.563786,0.5584178033745029,0.005368196625502267,0.0,0.0,0.0,0.0,0.0,0.0,0.0,33.41,0.0,S01
-41.989435509762956,-49.98811037189111,-11.999948605025578,66.37712436904874,4.165918392503526,80.0,0.5974853382717965,1.0,0.568911,0.5595564160658536,0.009354583934151381,0.0,0.0,0.0,0.0,0.0,0.0,0.0,33.41,0.0,S01
-38.97795550405627,-47.99788109923439,-11.998826311323613,62.98451744787559,0.6110404590205754,80.0,0.5974853382717965,0.0,0.571474,0.5606779320747955,0.010796067925209547,0.0,0.0,0.0,0.0,0.0,0.0,0.0,33.41,0.0,S01
-39.98917186322788,-49.97298588937004,-12.01043626239963,65.12053258549962,-20.414782479125275,80.0,0.5974853382717965,0.0,0.565067,0.5617795239276148,0.00328747607239039,0.0,0.0,0.0,0.0,0.0,0.0,0.0,33.41,0.0,S01
-38.017181658922496,-51.00679885109107,-11.02042819723354,64.56353047947083,12.58095829310406,80.0,0.7514835728178496,1.0,0.574036,0.5628586784512336,0.011177321548771628,0.0,0.0,0.0,0.0,0.0,0.0,0.0,33.41,0.0,S01
-42.98035250368034,-49.00499098296258,-16.00518210948276,67.11904123971507,10.430675132598129,74.81296758104737,0.7514835728178496,0.0,0.570192,0.5639131761876207,0.006278823812384556,0.0,0.0,0.0,0.0,0.0,0.0,0.0,33.41,0.0,S01
-37.010145980777224,-50.008733286610635,-9.003883976099413,62.86250263157567,-0.7128146485241427,64.79481641468684,0.7514835728178496,0.0,0.574036,0.564941096084294,0.009094903915711225,0.0,0.0,0.0,0.0,0.0,0.0,0.0,33.41,0.0,S01
-44.97459484095687,-53.997223400495045,-15.9618201900505,72.06381907622367,2.738181560700216,55.865921787709496,0.7514835728178496,0.0,0.572755,0.5659408241767092,0.006814175823296029,0.0,0.0,0.0,0.0,0.0,0.0,0.0,33.43,0.0,S01
-38.002321207678165,-53.97424175405709,8.02289520207177,66.49633100796142,-12.103433404567655,50.08347245409015,0.7514835728178496,0.0,0.574036,0.5669110449621064,0.007124955037898751,0.0,0.0,0.0,0.0,0.0,0.0,0.0,33.43,0.0,S01
-31.99967824434217,-54.01638999214091,12.988698837749073,64.11283875342154,6.08061340713668,48.0,0.28139731162093656,1.0,0.576599,0.5678507307899049,0.008748269210100199,0.0,0.0,0.0,0.0,0.0,0.0,0.0,33.43,0.0,S01
-29.982041743139494,-51.984344039457696,14.979551649481934,61.85209632599009,-22.712712220031143,53.553719008264466,0.28139731162093656,0.0,0.571474,0.568759132371686,0.002714867628319109,0.0,0.0,0.0,0.0,0.0,0.0,0.0,33.43,0.0,S01
-26.0181186763432,-52.994626049215796,20.978415900181158,62.653545974936435,-20.43392777133297,68.21052631578947,0.28139731162093656,0.0,0.576599,0.569635752131677,0.006963247868327695,0.0,0.0,0.0,0.0,0.0,0.0,0.0,33.45,0.0,S01
-33.003417769422626,-57.981718759074575,18.005446179300467,69.10355552961907,115.21148569985111,80.0,0.9212105542644448,1.0,0.576599,0.5704803126375266,0.006118687362477878,0.0,0.0,0.0,0.0,0.0,0.0,0.0,33.45,0.0,S01
-29.005030336864586,-53.00043757875831,18.99727705325509,63.33430905773287,72.25354029727647,76.03960396039604,0.9212105542644448,0.0,0.568911,0.5712927353943301,-0.0023817353943257633,0.0,0.0,0.0,0.0,0.0,0.0,0.0,33.45,0.0,S01
-31.018519715072628,-54.99554505692512,16.00212990353163,65.13621652254706,-51.947729813083434,68.57142857142857,0.9212105542644448,0.0,0.574036,0.5720730842131942,0.001962915786809776,0.0,0.0,0.0,0.0,0.0,0.0,0.0,33.45,0.0,S01
-31.997328497875188,-55.00309548470132,13.997370843583003,65.15440072959687,-63.44019267349468,62.4390243902439,0.9212105542644448,0.0,0.571474,0.5728214792685338,-0.0013474792685301863,0.0,0.0,0.0,0.0,0.0,0.0,0.0,33.41,0.0,S01
-31.99522076913417,-55.000339801907835,15.999841497394453,65.61041425210412,61.9431747857482,60.0,0.8139399970719555,1.0,0.57788,0.5735380581816922,0.00434194181831086,0.0,0.0,0.0,0.0,0.0,0.0,0.0,33.41,0.0,S01
-26.989565141009805,-55.002135194104625,20.003375323988045,64.4500312394316,-25.43310768134916,64.15841584158416,0.8139399970719555,0.0,0.581724,0.5742230116059123,0.007500988394090647,0.0,0.0,0.0,0.0,0.0,0.0,0.0,33.41,0.0,S01
-28.99986222518396,-53.99905204595122,17.998970031430755,63.881550960612586,-23.786058924231064,73.63636363636363,0.8139399970719555,0.0,0.580443,0.5748766688757764,0.005566331124226557,0.0,0.0,0.0,0.0,0.0,0.0,0.0,33.41,0.0,S01
-28.99954193197316,-54.999613990127095,19.000386909552116,65.01496500068221,23.49359961613958,80.0,0.4461531118237178,1.0,0.57788,0.5754995634863324,0.002380436513670506,0.0,0.0,0.0,0.0,0.0,0.0,0.0,33.43,0.0,S01
-31.000112724195063,-55.00044906721306,17.999879501030648,65.650986653359,-55.5669220882489,76.03960396039604,0.4461531118237178,0.0,0.579162,0.5760924203753094,0.003069579624693588,0.0,0.0,0.0,0.0,0.0,0.0,0.0,33.43,0.0,S01
-32.002610317264136,-55.00128092233381,16.996348175202492,65.8648906589,-3.7393895259702297,68.57142857142857,0.4461531118237178,0.0,0.580443,0.5766561077353429,0.0037868922646601797,0.0,0.0,0.0,0.0,0.0,0.0,0.0,33.43,0.0,S01
-30.00248875096245,-54.99798493732728,19.002098862402306,65.4676060322555,-33.30409502695177,62.4390243902439,0.4461531118237178,0.0,0.57788,0.5771916113422766,0.0006883886577263194,0.0,0.0,0.0,0.0,0.0,0.0,0.0,33.43,0.0,S01
-27.00008607150462,-54.997374244526945,20.00229154463879,64.45003870206706,111.9311846117508,60.0,0.742600221689854,1.0,0.579162,0.5777000160963907,0.0014619839036121712,0.0,0.0,0.0,0.0,0.0,0.0,0.0,33.45,0.0,S01
-28.00273331918135,-54.997243087312235,20.997265013961055,65.18999124571667,15.270129220411583,60.0,0.742600221689854,0.0,0.575318,0.5781824672628407,-0.0028644672628379275,0.0,0.0,0.0,0.0,0.0,0.0,0.0,33.45,0.0,S01
-28.000092270645904,-55.00470477098923,20.004215895001217,64.8821344260667,-2.5141182784141844,60.0,0.742600221689854,0.0,0.575318,0.5786401113754454,-0.003322111375442643,0.0,0.0,0.0,0.0,0.0,0.0,0.0,33.45,0.0,S01
-27.99948915135115,-54.99961356297699,21.003989000474306,65.1927636992441,-26.1434329717637,60.0,0.742600221689854,0.0,0.580443,0.5790740411827039,0.0013689588172989152,0.0,0.0,0.0,0.0,0.0,0.0,0.0,33.45,0.0,S01
-28.004905975359527,-54.00016763828193,19.995542035758632,64.03213697007986,42.176338892334876,60.0,0.9158801154398489,1.0,0.57788,0.5794852873356295,-0.001605287335627108,0.0,0.0,0.0,0.0,0.0,0.0,0.0,33.43,0.0,S01
-27.001522787734533,-54.99816354190725,19.99530847829231,64.44914729444442,26.099842523597683,58.47953216374269,0.9158801154398489,0.0,0.583006,0.5798748537255982,0.0031311462744039588,0.0,0.0,0.0,0.0,0.0,0.0,0.0,33.43,0.0,S01
-26.99294986429144,-54.00020410779532,20.000608629752936,63.59768652726492,0.35998081292703876,55.147058823529406,0.9158801154398489,0.0,0.57788,0.5802437506373093,-0.0023637506373074485,0.0,0.0,0.0,0.0,0.0,0.0,0.0,33.43,0.0,S01
-27.99936048836023,-54.99996599984394,19.998399279614983,64.8760080575866,-21.35424274117228,51.63511187607573,0.9158801154398489,0.0,0.581724,0.5805930012493821,0.0011309987506195156,0.0,0.0,0.0,0.0,0.0,0.0,0.0,33.43,0.0,S01
-27.000656030912786,-54.990668785457046,19.033819653967022,64.15056796468171,-8.742859008637007,49.01960784313726,0.9158801154398489,0.0,0.581724,0.5809236336522685,0.0008003663477327587,0.0,0.0,0.0,0.0,0.0,0.0,0.0,33.47,0.0,S01
-27.997084806083002,-55.01182882940815,19.99730012579245,64.88474459467436,15.610463824517293,48.0,0.8543468443945361,1.0,0.57788,0.5812366766678375,-0.00335667666783659,0.0,0.0,0.0,0.0,0.0,0.0,0.0,33.47,0.0,S01
-28.02669121752757,-55.00302750699128,19.99556654873862,64.88953025829754,14.930032471735377,49.002709553360724,0.8543468443945361,0.0,0.581724,0.5815331441681225,0.00019085583187792438,0.0,0.0,0.0,0.0,0.0,0.0,0.0,33.47,0.0,S01
-27.993860438975364,-54.002913422760564,21.025875069315095,64.3588245919194,-19.50352586058631,51.681415929203546,0.8543468443945361,0.0,0.579162,0.5818140078543046,-0.002652007854304769,0.0,0.0,0.0,0.0,0.0,0.0,0.0,33.47,0.0,S01
-29.001634035873188,-53.987040277397504,20.00007561477678,64.46470599685418,11.975886261718934,55.58045008426687,0.8543468443945361,0.0,0.581724,0.5820801859390381,-0.0003561859390388174,0.0,0.0,0.0,0.0,0.0,0.0,0.0,33.45,0.0,S01
-28.01565178392034,-53.99707001362791,22.01192881339388,64.69223543069472,12.893845057987381,60.0,0.3658173252722571,1.0,0.584287,0.5823325537982589,0.001954446201739942,0.0,0.0,0.0,0.0,0.0,0.0,0.0,33.45,0.0,S01
-28.983728573902248,-54.00292928774597,21.99887173722053,65.11776448415293,-18.86469176597529,66.42887234938912,0.3658173252722571,0.0,0.584287,0.5825719796075556,0.0017150203924429265,0.0,0.0,0.0,0.0,0.0,0.0,0.0,33.45,0.0,S01
-28.99020531324846,-54.01138620012462,21.00027947034588,64.79717263273099,-52.67657777163844,75.10955859002857,0.3658173252722571,0.0,0.579162,0.5827993574525664,-0.0036373574525681435,0.0,0.0,0.0,0.0,0.0,0.0,0.0,33.45,0.0,S01
-28.01397172875262,-53.984343425792765,19.998237003305583,64.02360057333284,66.52346699739044,80.0,0.9587722311761977,1.0,0.593256,0.5830156134534804,0.01024038654651765,0.0,0.0,0.0,0.0,0.0,0.0,0.0,33.47,0.0,S01
-27.064367760739444,-54.000596326684764,21.965700288027545,64.27313898565689,17.780936837843026,76.03960396039604,0.9587722311761977,0.0,0.583006,0.5832217398271662,-0.00021573982716844783,0.0,0.0,0.0,0.0,0.0,0.0,0.0,33.47,0.0,S01
-30.036929292804917,-54.99993051599315,17.95592714132445,65.18914631753961,-12.463985550691287,68.57142857142857,0.9587722311761977,0.0,0.583006,0.5834188415851944,-0.0004128415851967675,0.0,0.0,0.0,0.0,0.0,0.0,0.0,33.47,0.0,S01
-29.01533359904729,-55.01708937552517,19.010509347037992,65.03975071333181,-34.55696027813476,62.4390243902439,0.9587722311761977,0.0,0.58685,0.5836081133900567,0.003241886609940966,0.0,0.0,0.0,0.0,0.0,0.0,0.0,33.47,0.0,S01
-28.99496532348651,-54.00474840668507,19.00146233682467,64.17379866828287,19.21772862754397,60.0,0.8288405698561828,1.0,0.581724,0.5837907923252016,-0.0020667923252041106,0.0,0.0,0.0,0.0,0.0,0.0,0.0,33.47,0.0,S01
-29.017513742580935,-53.99329624135506,19.99896683105651,64.47674632855863,12.787517992838085,60.0,0.8288405698561828,0.0,0.589412,0.5839681506500005,0.005443849349996824,0.0,0.0,0.0,0.0,0.0,0.0,0.0,33.47,0.0,S01
-29.994659999105902,-54.02092710896687,19.976668557637144,64.93848997964123,-2.6729708440642215,60.0,0.8288405698561828,0.0,0.58685,0.5841415193369615,0.0027084806630356803,0.0,0.0,0.0,0.0,0.0,0.0,0.0,33.47,0.0,S01
-29.044686158940486,-54.99865593500199,18.976479619981745,65.02732293040874,5.165165869326106,60.0,0.8288405698561828,0.0,0.583006,0.584312317925579,-0.0013063179255818546,0.0,0.0,0.0,0.0,0.0,0.0,0.0,33.47,0.0,S01
-27.993983125046196,-54.007844283542596,20.004066635904834,64.03649754112476,6.403468520033486,60.0,0.1714411603340076,1.0,0.581724,0.5844820326239476,-0.0027580326239503294,0.0,0.0,0.0,0.0,0.0,0.0,0.0,33.47,0.0,S01
-28.985978546893108,-55.01595566272179,20.003022403217216,65.32276199815135,-14.544720347009422,64.15841584158416,0.1714411603340076,0.0,0.583006,0.5846521395398363,-0.0016461395398391964,0.0,0.0,0.0,0.0,0.0,0.0,0.0,33.47,0.0,S01
-29.048080023248552,-55.00262342382969,19.000208262714516,65.03912246153999,-12.909313374364897,73.63636363636363,0.1714411603340076,0.0,0.574036,0.584824027948518,-0.010788027948520726,0.0,0.0,0.0,0.0,0.0,0.0,0.0,33.47,0.0,S01
-28.025089040819704,-54.99822315897767,18.018924083921554,64.30312427505143,12.99972410236796,80.0,0.9575968794259845,1.0,0.584287,0.5849989296550362,-0.0007119296550390278,0.0,0.0,0.0,0.0,0.0,0.0,0.0,33.47,0.0,S01
-29.00662334361898,-54.99860358631018,19.03947147509718,65.02870188073656,3.018946492601914,76.03960396039604,0.9575968794259845,0.0,0.57788,0.5851778757727977,-0.0072978757728008326,0.0,0.0,0.0,0.0,0.0,0.0,0.0,33.47,0.0,S01
-30.015675627727358,-54.996752850435534,17.917585673729928,65.16612220975165,-14.929688044976867,68.57142857142857,0.9575968794259845,0.0,0.571474,0.5853616778196662,-0.013887677819669372,0.0,0.0,0.0,0.0,0.0,0.0,0.0,33.47,0.0,S01
-28.164613406384667,-53.97974184594272,21.107130425406638,64.44042933501335,-10.563211858359093,62.4390243902439,0.9575968794259845,0.0,0.585568,0.585550878132493,1.712186750351774e-05,0.0,0.0,0.0,0.0,0.0,0.0,0.0,33.47,0.0,S01
-28.03016719763062,-54.02728332694075,22.002896287519448,64.72066951025765,23.547366804576765,60.0,0.8257008373027591,1.0,0.579162,0.5857457336906153,-0.006583733690618852,0.0,0.0,0.0,0.0,0.0,0.0,0.0,33.47,0.0,S01
-28.96928251680617,-54.00272201046572,18.97108638780751,64.1515037455228,-17.67810131219977,64.15841584158416,0.8257008373027591,0.0,0.583006,0.5859462821827085,-0.0029402821827119764,0.0,0.0,0.0,0.0,0.0,0.0,0.0,33.47,0.0,S01
-28.97689273428006,-53.995299608542275,19.999684112682104,64.46037586732866,-18.936487989234656,73.63636363636363,0.8257008373027591,0.0,0.58685,0.5861524078645745,0.0006975921354221057,0.0,0.0,0.0,0.0,0.0,0.0,0.0,33.47,0.0,S01
-29.970646697939845,-54.96864558856411,20.022369588478384,65.73193246262828,77.41471908967989,80.0,0.9945374633895734,1.0,0.588131,0.5863639010950541,0.0017670989049427873,0.0,0.0,0.0,0.0,0.0,0.0,0.0,33.47,0.0,S01
-28.0072442626183,-54.967431585882466,19.005779777681468,64.55264464986978,16.201757913008862,74.48275862068965,0.9945374633895734,0.0,0.590694,0.5865805451375591,0.004113454862437856,0.0,0.0,0.0,0.0,0.0,0.0,0.0,33.47,0.0,S01
-27.82354542019679,-55.00191200287927,21.085520672848727,65.14567664678417,-60.21794740641726,63.529411764705884,0.9945374633895734,0.0,0.589412,0.5868021935942836,0.002609806405713424,0.0,0.0,0.0,0.0,0.0,0.0,0.0,33.49,0.0,S01
-32.14641590072127,-54.00679209901035,18.969585605799296,65.6503680579448,12.355447422943643,53.333333333333336,0.9945374633895734,0.0,0.583006,0.5870287926801856,-0.0040227926801885,0.0,0.0,0.0,0.0,0.0,0.0,0.0,33.49,0.0,S01
-27.966980187413157,-53.988262446711545,21.04358575025717,64.34063229442644,18.782482931230934,45.95744680851064,0.9945374633895734,0.0,0.583006,0.5872603208630306,-0.004254320863033119,0.0,0.0,0.0,0.0,0.0,0.0,0.0,33.49,0.0,S01
-32.031645244233,-53.99774140736576,17.998790507975507,65.31262384791417,-24.215909613252602,41.53846153846153,0.9945374633895734,0.0,0.584287,0.5874966855694245,-0.003209685569426582,0.0,0.0,0.0,0.0,0.0,0.0,0.0,33.49,0.0,S01
-30.927845069858627,-53.99999993868692,19.021639184469805,65.0719167637432,32.07100752234992,40.0,0.6753439456475555,1.0,0.589412,0.587737674664373,0.001674325335625112,0.0,0.0,0.0,0.0,0.0,0.0,0.0,33.49,0.0,S01
-31.00036371137234,-54.00000000002525,17.995830442482937,64.81413783700818,23.573684362867954,40.46055931428826,0.6753439456475555,0.0,0.585568,0.5879829901853039,-0.0024149901853059235,0.0,0.0,0.0,0.0,0.0,0.0,0.0,33.49,0.0,S01
-30.001259617669145,-54.00000103695522,17.049451541306464,64.08400337445616,12.374488322431077,41.70208855088114,0.6753439456475555,0.0,0.588131,0.5882322941144971,-0.00010129411449898845,0.0,0.0,0.0,0.0,0.0,0.0,0.0,33.49,0.0,S01
-31.00878141368932,-54.040041402338176,18.04508434116249,64.86521154215143,-29.045473415285272,43.53614219407764,0.6753439456475555,0.0,0.588131,0.5884852204054798,-0.00035422040548162216,0.0,0.0,0.0,0.0,0.0,0.0,0.0,33.49,0.0,S01
-31.008248601294717,-54.00066983191938,16.995332180585862,64.54785154863113,-23.438175335150966,45.742080193553264,0.6753439456475555,0.0,0.591975,0.5887413868626509,0.0032336131373473043,0.0,0.0,0.0,0.0,0.0,0.0,0.0,33.49,0.0,S01
-30.98565976692766,-53.98858886622611,17.023265364696496,64.53425758955525,22.76071506685472,48.0,0.9099843060606725,1.0,0.595819,0.5890004465774372,0.006818553422560852,0.0,0.0,0.0,0.0,0.0,0.0,0.0,33.49,0.0,S01
-30.0350733256142,-53.99999081733585,17.991032206917954,64.35667702591346,16.48402172488093,50.29156717076278,0.9099843060606725,0.0,0.584287,0.5892621483982674,-0.0049751483982693415,0.0,0.0,0.0,0.0,0.0,0.0,0.0,33.49,0.0,S01
-29.997195267819208,-54.010061620600844,18.009171226029817,64.3525347476324,-33.04392649833409,52.95365131702199,0.9099843060606725,0.0,0.593256,0.5895263301104319,0.0037296698895662303,0.0,0.0,0.0,0.0,0.0,0.0,0.0,33.49,0.0,S01
-30.96420489657081,-53.999123516769615,17.99337496650255,64.79543863684636,18.81241674089521,56.12425239989046,0.9099843060606725,0.0,0.585568,0.5897928565486292,-0.004224856548630941,0.0,0.0,0.0,0.0,0.0,0.0,0.0,33.49,0.0,S01
-30.000241952088945,-55.041468920979455,17.952737570660535,65.20643069854408,27.239615921795313,60.0,0.5890443115824137,1.0,0.58685,0.5900615667748574,-0.0032115667748589876,0.0,0.0,0.0,0.0,0.0,0.0,0.0,33.49,0.0,S01
-29.99715971496061,-54.99787312920578,18.039578121188867,65.19219292592899,-3.2679029925845273,66.42887234938912,0.5890443115824137,0.0,0.583006,0.5903322150668066,-0.00732621506680788,0.0,0.0,0.0,0.0,0.0,0.0,0.0,33.49,0.0,S01
-30.000001187009524,-54.00075700676915,16.958019671924692,64.05978660375075,-51.87776169601192,75.10955859002857,0.5890443115824137,0.0,0.5971,0.5906044240424622,0.006495575957536678,0.0,0.0,0.0,0.0,0.0,0.0,0.0,33.49,0.0,S01
-30.04867357352781,-54.99320775761505,16.96837572904388,64.9238127183135,31.78966006940578,80.0,0.7665092653209679,1.0,0.591975,0.5908777354180708,0.0010972645819282833,0.0,0.0,0.0,0.0,0.0,0.0,0.0,33.49,0.0,S01
-30.00165937094702,-54.048028761933736,18.043601672845913,64.39612208347236,25.696589420164162,74.81296758104737,0.7665092653209679,0.0,0.591975,0.591151718718547,0.0008232812814519738,0.0,0.0,0.0,0.0,0.0,0.0,0.0,33.49,0.0,S01
-29.99576921131279,-54.000230716247785,18.002774644961065,64.34182918524763,5.381770168676296,64.79481641468684,0.7665092653209679,0.0,0.590694,0.5914260097194354,-0.0007320097194364263,0.0,0.0,0.0,0.0,0.0,0.0,0.0,33.49,0.0,S01
-29.990811207841958,-55.00114573919345,18.984135182377358,65.45969888527745,-23.514011791382536,55.865921787709496,0.7665092653209679,0.0,0.595819,0.5917002847438433,0.004118715256155385,0.0,0.0,0.0,0.0,0.0,0.0,0.0,33.49,0.0,S01
-30.011155956867036,-54.06455073614556,17.997418106973345,64.40149211536846,-40.721669363662286,50.08347245409015,0.7665092653209679,0.0,0.593256,0.5919742624257344,0.0012817375742644284,0.0,0.0,0.0,0.0,0.0,0.0,0.0,33.5,0.0,S01
-30.000622082663067,-54.00060049602158,18.008043411825867,64.3458763775885,25.24611859921148,48.0,0.9249268035287288,1.0,0.594538,0.5922477329495048,0.002290267050493982,0.0,0.0,0.0,0.0,0.0,0.0,0.0,33.5,0.0,S01
-30.00001461436323,-54.995716953963466,16.953285466829758,64.89948881356689,12.09888520073861,49.54838709677419,0.9249268035287288,0.0,0.591975,0.5925205628733465,-0.0005455628733477078,0.0,0.0,0.0,0.0,0.0,0.0,0.0,33.5,0.0,S01
-30.93517521407884,-54.05512385416189,17.96025406990196,64.81907286185115,-6.371496008447069,53.333333333333336,0.9249268035287288,0.0,0.593256,0.5927926694389497,0.0004633305610490099,0.0,0.0,0.0,0.0,0.0,0.0,0.0,33.5,0.0,S01
-29.990485631779276,-54.98879909371326,17.96106270614595,65.15978075264546,-43.79506678307875,57.744360902255636,0.9249268035287288,0.0,0.595819,0.5930639979549589,0.0027550020450395874,0.0,0.0,0.0,0.0,0.0,0.0,0.0,33.53,0.0,S01
-30.990863396476307,-54.00000458139443,17.997774725777244,64.8101381261412,21.666130009573305,60.0,0.7784937066748443,1.0,0.591975,0.5933345236336605,-0.0013595236336621764,0.0,0.0,0.0,0.0,0.0,0.0,0.0,33.53,0.0,S01
-30.983975395386974,-54.000519121677854,17.039762695308312,64.54778314880429,18.241847046221118,60.0,0.7784937066748443,0.0,0.594538,0.5936042534615337,0.0009337465384643082,0.0,0.0,0.0,0.0,0.0,0.0,0.0,33.53,0.0,S01
-31.02527248195023,-54.996360657760526,16.963800711776372,65.38300813488618,-18.244726020394907,60.0,0.7784937066748443,0.0,0.590694,0.5938732036760024,-0.003179203676004729,0.0,0.0,0.0,0.0,0.0,0.0,0.0,33.53,0.0,S01
-31.999702104877215,-53.074780723933856,16.939644051111294,64.24846164907682,-32.71411885787409,60.0,0.7784937066748443,0.0,0.590694,0.5941413589515232,-0.0034473589515259585,0.0,0.0,0.0,0.0,0.0,0.0,0.0,33.53,0.0,S01
-32.003603290002054,-53.99992839799184,16.999812835268433,65.03242673440867,20.023962445002013,60.0,0.8676719663369044,1.0,0.58685,0.5944086132927869,-0.0075586132927899456,0.0,0.0,0.0,0.0,0.0,0.0,0.0,33.53,0.0,S01
-30.996316261813096,-53.999999998073264,16.99967681951994,64.54270395298275,10.862036395541754,58.47953216374269,0.8676719663369044,0.0,0.5971,0.59467471706293,0.002425282937067063,0.0,0.0,0.0,0.0,0.0,0.0,0.0,33.53,0.0,S01
-30.951419647939645,-53.99999999999995,17.003714064044747,64.52221842276234,0.7833492518626446,55.147058823529406,0.8676719663369044,0.0,0.591975,0.5949392881669806,-0.002964288166983485,0.0,0.0,0.0,0.0,0.0,0.0,0.0,33.53,0.0,S01
-31.04777885653106,-54.00000000000002,17.003646002335838,64.56847953372304,-22.627300011385955,51.63511187607573,0.8676719663369044,0.0,0.594538,0.5952018690837808,-0.0006638690837837946,0.0,0.0,0.0,0.0,0.0,0.0,0.0,33.55,0.0,S01
-30.995298452458098,-54.00000000000001,17.985187129850566,64.80876084490966,-27.706973520376657,49.01960784313726,0.8676719663369044,0.0,0.58685,0.595461938162853,-0.00861193816285604,0.0,0.0,0.0,0.0,0.0,0.0,0.0,33.55,0.0,S01
-31.063559527171286,-54.000000000000014,16.996257158160486,64.5741239807745,20.014512529522058,48.0,0.8966831487837555,1.0,0.609914,0.5957188935218913,0.014195106478105547,0.0,0.0,0.0,0.0,0.0,0.0,0.0,33.55,0.0,S01
-30.961229888717796,-54.00000000000001,16.95222105628748,64.51337500831336,18.00565158801732,49.54838709677419,0.8966831487837555,0.0,0.589412,0.5959721164278556,-0.006560116427858506,0.0,0.0,0.0,0.0,0.0,0.0,0.0,33.55,0.0,S01
-30.9996471660766,-54.000000000000014,17.065751259568685,64.56173782105553,-7.149540478650847,53.333333333333336,0.8966831487837555,0.0,0.599663,0.5962210531107899,0.003441946889207401,0.0,0.0,0.0,0.0,0.0,0.0,0.0,33.55,0.0,S01
-31.073944024408462,-54.00000000000354,16.946360026496446,64.56600588064968,-38.51637511965462,57.744360902255636,0.8966831487837555,0.0,0.595819,0.5964652020594972,-0.0006462020594994894,0.0,0.0,0.0,0.0,0.0,0.0,0.0,33.55,0.0,S01
-30.981431198381497,-54.000000134654385,18.001550200414723,64.80667329265384,16.55137258830889,60.0,0.7530999181048107,1.0,0.604788,0.5967040953766745,0.008083904623323505,0.0,0.0,0.0,0.0,0.0,0.0,0.0,33.55,0.0,S01
-30.996475996942042,-54.005138959205645,18.003079211754184,64.81857310475765,13.894359024716948,60.0,0.7530999181048107,0.0,0.5971,0.5969373505466052,0.00016264945339288493,0.0,0.0,0.0,0.0,0.0,0.0,0.0,33.55,0.0,S01
-30.009583180934364,-53.99971140616934,17.99319945770229,64.3451563162889,-17.332478409898414,60.0,0.7530999181048107,0.0,0.585568,0.5971646765971529,-0.0115966765971546,0.0,0.0,0.0,0.0,0.0,0.0,0.0,33.53,0.0,S01
-30.999994280933468,-53.99999999224983,16.957307020622707,64.53332399599876,-9.126419458928247,60.0,0.7530999181048107,0.0,0.598382,0.5973857522315446,0.0009962477684540502,0.0,0.0,0.0,0.0,0.0,0.0,0.0,33.53,0.0,S01
-30.999999999846246,-53.999999999999794,18.056795307251086,64.8309174449846,27.107151567593135,60.0,0.9550667206759844,1.0,0.599663,0.5976001255674604,0.0020628744325385264,0.0,0.0,0.0,0.0,0.0,0.0,0.0,33.53,0.0,S01
-30.999999992426442,-54.00000000000001,16.97669138530269,64.53842305109609,14.30255400681178,58.47953216374269,0.9550667206759844,0.0,0.603507,0.5978072820594807,0.005699717940518818,0.0,0.0,0.0,0.0,0.0,0.0,0.0,33.53,0.0,S01
-30.999711193996053,-53.999999999985796,17.9836651411763,64.81044904966782,-4.709130174847625,55.147058823529406,0.9550667206759844,0.0,0.604788,0.598006789009514,0.0067812109904861395,0.0,0.0,0.0,0.0,0.0,0.0,0.0,33.55,0.0,S01
-30.99411496666349,-53.99999945827926,16.940617065225048,64.5261157254294,-30.302388657365658,51.63511187607573,0.9550667206759844,0.0,0.598382,0.5981983823308954,0.00018361766910529034,0.0,0.0,0.0,0.0,0.0,0.0,0.0,33.55,0.0,S01
-30.983416668915336,-53.979348429833045,17.941909019084985,64.77387023050316,19.89415099413335,49.01960784313726,0.9550667206759844,0.0,0.594538,0.5983819467333912,-0.003843946733389869,0.0,0.0,0.0,0.0,0.0,0.0,0.0,33.55,0.0,S01
-31.048318511533076,-53.995767340402594,17.90296485457714,64.80784770115977,23.890639358817296,48.0,0.5294107034726773,1.0,0.593256,0.598557398499971,-0.005301398499969273,0.0,0.0,0.0,0.0,0.0,0.0,0.0,33.55,0.0,S01
-30.99543722333801,-54.00002971700927,17.984536321464567,64.80867137044125,10.5362308484846,49.54838709677419,0.5294107034726773,0.0,0.607351,0.5987245868851769,0.008626413114825031,0.0,0.0,0.0,0.0,0.0,0.0,0.0,33.53,0.0,S01
-29.99891907937494,-53.93873497991198,17.97692612666991,64.28446274277955,-10.048885724390862,53.333333333333336,0.5294107034726773,0.0,0.607351,0.5988833515463975,0.008467648453604992,0.0,0.0,0.0,0.0,0.0,0.0,0.0,33.53,0.0,S01
-30.062748972405874,-54.00581873823979,18.026380426734804,64.38437484867637,-26.589574816687204,57.744360902255636,0.5294107034726773,0.0,0.595819,0.5990336688442608,-0.003214668844257671,0.0,0.0,0.0,0.0,0.0,0.0,0.0,33.53,0.0,S01
-29.99689443769332,-54.10083595262451,18.066231134338572,64.44457179684143,13.008292770238963,60.0,0.8351392487092465,1.0,0.604788,0.5991756885389994,0.005612311461004365,0.0,0.0,0.0,0.0,0.0,0.0,0.0,33.53,0.0,S01
-30.080379171893664,-55.00446405009372,16.916864725700705,64.93458699884526,8.243312426766028,60.0,0.8351392487092465,0.0,0.603507,0.5993096791990552,0.004197320800949203,0.0,0.0,0.0,0.0,0.0,0.0,0.0,33.55,0.0,S01
-30.11409460229285,-54.929496006711666,16.94392860634312,64.89379740687124,-9.269621583054311,60.0,0.8351392487092465,0.0,0.599663,0.599436019725875,0.00022698027412988491,0.0,0.0,0.0,0.0,0.0,0.0,0.0,33.55,0.0,S01
-30.015190451170238,-55.98172585087799,17.005475465702126,65.75752035225689,-26.317713675263356,60.0,0.8351392487092465,0.0,0.5971,0.5995551911851217,-0.0024551911851160217,0.0,0.0,0.0,0.0,0.0,0.0,0.0,33.55,0.0,S01
-30.001540078509045,-54.02183711840517,17.02624920019952,64.09636849742097,15.505021346042465,60.0,0.8479184649751415,1.0,0.588131,0.5996676803761465,-0.011536680376140088,0.0,0.0,0.0,0.0,0.0,0.0,0.0,33.55,0.0,S01
-30.022206492333744,-53.95307080511317,17.987632001577076,64.31035404189625,12.311722566543017,58.47953216374269,0.8479184649751415,0.0,0.603507,0.5997738500857136,0.0037331499142931593,0.0,0.0,0.0,0.0,0.0,0.0,0.0,33.57,0.0,S01
-30.000919962922268,-54.99990726770637,16.90259416604996,64.8902356878148,-12.015660393334416,55.147058823529406,0.8479184649751415,0.0,0.603507,0.5998739195262484,0.003633080473758912,0.0,0.0,0.0,0.0,0.0,0.0,0.0,33.57,0.0,S01
-31.053825489637376,-54.08095933278225,16.98313620835241,64.63371531458137,-33.40632746904866,51.63511187607573,0.8479184649751415,0.0,0.603507,0.5999680885317514,0.003538911468256298,0.0,0.0,0.0,0.0,0.0,0.0,0.0,33.57,0.0,S01
-30.05483590629008,-54.06262315913576,19.985327729563064,65.0036438106264,3.8563296704188357,49.01960784313726,0.8479184649751415,0.0,0.60607,0.6000566650393566,0.006013334960651581,0.0,0.0,0.0,0.0,0.0,0.0,0.0,33.57,0.0,S01
