ACC_x,ACC_y,ACC_z,ACC_net,PPG_Clean,PPG_Rate,PPG_Quality,PPG_Peaks,EDA_Clean,EDA_Tonic,EDA_Phasic,SCR_Onsets,SCR_Peaks,SCR_Height,SCR_Amplitude,SCR_RiseTime,SCR_Recovery,SCR_RecoveryTime,TEMP,label,subject_id
-8.000000000000002,-17.0,54.00000000000002,57.175169435691245,-1.125859510036237e-23,61.14931917839834,0.9869022265188306,0.0,0.0,-0.003217908698936753,0.003217908698934957,0.0,0.0,0.0,0.0,0.0,0.0,0.0,30.05,0.0,f01
-35.0034065494899,-3.0016356703006286,47.99382750595177,59.478195714372056,-0.049988020405213926,61.14931917839834,0.9869022265188306,0.0,0.298406,0.014356771349181606,0.2840492286508169,0.0,0.0,0.0,0.0,0.0,0.0,0.0,30.05,0.0,f01
-27.996889331162826,8.000875663202413,56.99919306346622,64.00584218245784,6.200622863327103,61.14931917839834,0.9869022265188306,0.0,0.357319,0.031801767627164225,0.3255172323728344,0.0,1.0,0.3255172323728344,0.0,0.0,0.0,0.0,30.05,0.0,f01
-30.00391525689546,13.001344554839484,54.99724967658766,63.98411805257255,22.904743546869508,61.14931917839834,0.9869022265188306,0.0,0.348354,0.04902110017293828,0.29933289982706046,0.0,0.0,0.0,0.0,0.0,0.0,0.0,30.05,0.0,f01
-37.99854951633716,18.00065234682603,50.00325146094396,65.33175649654014,93.78158358943132,61.14931917839834,0.9869022265188306,0.0,0.345793,0.06592967887159902,0.27986332112839973,0.0,0.0,0.0,0.0,0.0,0.0,0.0,30.05,0.0,f01
-36.99944056407572,18.00019355724226,49.000527299178074,63.98450785737321,208.4549385023304,61.14931917839834,0.9869022265188306,1.0,0.339389,0.08245375335336468,0.25693524664663425,0.0,0.0,0.0,0.0,0.0,0.0,0.0,30.05,0.0,f01
-36.99814069851074,18.99995484735475,50.00244876055131,65.03926184544129,-537.2227488489538,70.00561042756678,0.9869022265188306,0.0,0.336828,0.09853022086921343,0.23829777913078562,0.0,0.0,0.0,0.0,0.0,0.0,0.0,30.05,0.0,f01
-38.00345220247856,17.00249235757623,52.006212098954855,66.6182649320514,72.60193683103202,77.1359256450529,0.9869022265188306,0.0,0.331705,0.1141058234906009,0.21759917650939825,0.0,0.0,0.0,0.0,0.0,0.0,0.0,30.05,0.0,f01
-35.00944043308766,17.997469612547683,49.99812006907821,63.63475341615187,145.86499961659786,80.0,0.7496694337705387,1.0,0.327863,0.1291363743964839,0.19872662560351534,0.0,0.0,0.0,0.0,0.0,0.0,0.0,30.07,0.0,f01
-32.006450361854235,15.996914756787703,53.99752768967776,64.77690285201422,56.46403856003654,74.48275862068965,0.7496694337705387,0.0,0.32274,0.1435860030847277,0.17915399691527156,0.0,0.0,0.0,0.0,0.0,0.0,0.0,30.07,0.0,f01
-30.981674100097322,15.999397974090533,54.99860110832835,65.12058806131122,29.260454731124465,63.529411764705884,0.7496694337705387,0.0,0.321459,0.15742642120468872,0.16403257879531058,0.0,0.0,0.0,0.0,0.0,0.0,0.0,30.07,0.0,f01
-30.996918391007412,14.996374572408419,53.00630577670854,63.208928579344516,-22.567986452261252,53.333333333333336,0.7496694337705387,0.0,0.317617,0.17063622870396367,0.14698077129603565,0.0,0.0,0.0,0.0,0.0,0.0,0.0,30.07,0.0,f01
-36.00158905866467,16.999433418574398,51.999770837826304,65.49100181313429,21.701861381411383,45.95744680851064,0.7496694337705387,0.0,0.315056,0.18320026748886858,0.13185573251113075,0.0,0.0,0.0,0.0,0.0,0.0,0.0,30.09,0.0,f01
-37.99930297521152,17.998945457371292,50.00085823242881,65.32989276096195,84.54693148966906,41.53846153846153,0.7496694337705387,0.0,0.312494,0.1951090081706868,0.11738499182931257,0.0,0.0,0.0,0.0,0.0,0.0,0.0,30.09,0.0,f01
-39.00045585505321,17.996476940595933,49.00074155634598,65.16119560173192,150.07974710659366,40.0,0.9595542562048899,1.0,0.312494,0.2063579704825692,0.10613602951743027,0.0,0.0,0.0,0.0,0.0,0.0,0.0,30.09,0.0,f01
-41.93967712037628,17.02112154984811,49.02836856234339,66.72657656182504,45.81925584109461,40.0,0.9595542562048899,0.0,0.313775,0.21694720215336782,0.09682779784663177,0.0,0.0,0.0,0.0,0.0,0.0,0.0,30.09,0.0,f01
-33.00537094478706,19.001888217479614,52.00062116354196,64.45534010791341,-24.488259080934643,40.0,0.9595542562048899,0.0,0.309933,0.2268808225292858,0.08305217747071386,0.0,0.0,0.0,0.0,0.0,0.0,0.0,30.05,0.0,f01
-34.00505107129732,20.003713277738516,51.99972296696119,65.27222404591575,-107.22803616637931,40.0,0.9595542562048899,0.0,0.306091,0.23616658517435818,0.06992441482564168,0.0,0.0,0.0,0.0,0.0,0.0,0.0,30.05,0.0,f01
-34.98950860604278,17.999875992275097,52.0004807182099,65.20974806847933,-410.55032643056796,40.0,0.9595542562048899,0.0,0.306091,0.24481541962099468,0.06127558037900546,0.0,0.0,0.0,0.0,0.0,0.0,0.0,30.05,0.0,f01
-32.99991271405243,17.999809176940524,52.005883308594065,64.16852240973337,-68.49107910725095,40.0,0.9595542562048899,0.0,0.30481,0.25284098555122564,0.05196901444877494,0.0,0.0,0.0,0.0,0.0,0.0,0.0,30.05,0.0,f01
-33.99556271791817,18.999996141738972,51.99829083257691,64.96553230293165,92.64346137989149,40.0,0.8765500115920304,1.0,0.303529,0.26025928172599305,0.043269718274007954,0.0,0.0,0.0,0.0,0.0,0.0,0.0,30.07,0.0,f01
-34.99354940466487,17.995314514725074,51.99567024900635,65.20682149180406,47.07267554110885,45.95744680851064,0.8765500115920304,0.0,0.300968,0.2670882938904949,0.03387970610950655,0.0,0.0,0.0,0.0,0.0,0.0,0.0,30.07,0.0,f01
-34.007050932687896,19.00808944347405,53.005474047667164,65.7827276452372,-9.264302212501395,63.529411764705884,0.8765500115920304,0.0,0.300968,0.27334765664277727,0.027620343357224506,0.0,0.0,0.0,0.0,0.0,0.0,0.0,30.07,0.0,f01
-33.99958384228911,17.999495691311928,52.99523507186453,65.48624654774912,64.15329364832189,80.0,0.49830273335994857,1.0,0.300968,0.27905834079695924,0.021909659203042914,0.0,0.0,0.0,0.0,0.0,0.0,0.0,30.07,0.0,f01
-33.99988910555303,17.99988355719567,52.99736646411422,65.48823649629088,19.07077913502585,80.0,0.49830273335994857,0.0,0.298406,0.28424238075226355,0.014163619247738929,0.0,0.0,0.0,0.0,0.0,0.0,0.0,30.07,0.0,f01
-31.99128460944084,18.003739940336782,52.99743982293729,64.46941577668734,-34.05632657148095,80.0,0.49830273335994857,0.0,0.297126,0.28892262275739733,0.008203377242605392,0.0,0.0,0.0,0.0,0.0,0.0,0.0,30.07,0.0,f01
-33.00609688000559,18.000477353445977,52.99567578445717,64.97662093442176,50.14526363785307,80.0,0.621765381265615,1.0,0.300968,0.2931224871367324,0.007845512863270787,0.0,0.0,0.0,0.0,0.0,0.0,0.0,30.07,0.0,f01
-36.058897031939416,18.017268001393578,53.00274846568213,66.58946873425572,16.978839366432396,80.0,0.621765381265615,0.0,0.297126,0.2968657741361134,0.00026022586389004565,0.0,0.0,0.0,0.0,0.0,0.0,0.0,30.07,0.0,f01
-27.028705205964012,16.015885273550683,54.99851228326617,63.33952825510326,-50.51087587648226,80.0,0.621765381265615,0.0,0.297126,0.3001765033385945,-0.0030505033385907765,0.0,0.0,0.0,0.0,0.0,0.0,0.0,30.05,0.0,f01
-28.999129980103888,17.001187713569518,57.00629690817985,66.17936091001894,31.93232422100456,80.0,0.4515713765843024,1.0,0.303529,0.3030787643769495,0.00045023562305455955,0.0,0.0,0.0,0.0,0.0,0.0,0.0,30.05,0.0,f01
-33.00165545423965,16.00998089506256,54.01943818604177,65.29570011046823,23.60651014731013,80.0,0.4515713765843024,0.0,0.298406,0.3055966115998888,-0.007190611599884433,0.0,0.0,0.0,0.0,0.0,0.0,0.0,30.05,0.0,f01
-34.00548600761019,17.00014857592098,52.98997395921924,65.2174475920048,-36.00895298585147,80.0,0.4515713765843024,0.0,0.298406,0.30775398651686303,-0.009347986516858184,0.0,0.0,0.0,0.0,0.0,0.0,0.0,30.05,0.0,f01
-32.989854181259474,15.000286941808318,53.989766746266476,65.02487216868334,73.92452093197473,80.0,0.6977686103879179,1.0,0.295845,0.30957460302098877,-0.01372960302098343,0.0,0.0,0.0,0.0,0.0,0.0,0.0,30.07,0.0,f01
-33.986891067614486,16.00942205464177,54.00997727779277,65.79124565254283,44.15340686430586,74.49773755656109,0.6977686103879179,0.0,0.297126,0.31108180974519806,-0.013955809745192352,0.0,0.0,0.0,0.0,0.0,0.0,0.0,30.07,0.0,f01
-33.989414278409484,14.999903720993094,54.000012179404926,65.54600453120152,-59.550193497811684,63.27440430438124,0.6977686103879179,0.0,0.293284,0.31229847442830416,-0.019014474428298095,0.0,0.0,0.0,0.0,0.0,0.0,0.0,30.07,0.0,f01
-33.0080063431215,16.011293227064165,53.00750149214023,64.46460430336813,-0.3764598785958265,52.46653919694073,0.6977686103879179,0.0,0.293284,0.3132468832928151,-0.019962883292808695,0.0,0.0,0.0,0.0,0.0,0.0,0.0,30.07,0.0,f01
-34.0060003471633,15.99788053503074,53.000010962739246,64.97185085307996,-15.573580909946084,44.234282643739924,0.6977686103879179,0.0,0.294564,0.31394864845437453,-0.019384648454367756,0.0,0.0,0.0,0.0,0.0,0.0,0.0,30.09,0.0,f01
-33.992446250637904,15.999781054407439,53.000000000299195,64.96521681579456,-19.830089297399827,38.66604039455143,0.6977686103879179,0.0,0.297126,0.314424656084773,-0.017298656084766037,0.0,0.0,0.0,0.0,0.0,0.0,0.0,30.09,0.0,f01
-34.00322826844693,16.011446100653057,53.00000000000002,64.97373268414113,-8.330918018917949,35.406451612903226,0.6977686103879179,0.0,0.290722,0.3146950575629196,-0.023973057562912528,0.0,0.0,0.0,0.0,0.0,0.0,0.0,30.09,0.0,f01
-34.01233760098191,16.000017377967133,53.00000000000001,64.97568518437046,35.2701684681865,34.285714285714285,0.9996351981471764,1.0,0.292003,0.3147792417830928,-0.0227762417830856,0.0,0.0,0.0,0.0,0.0,0.0,0.0,30.09,0.0,f01
-34.01525061497306,15.996775959089867,53.00000000000001,64.97641199300513,2.1915192061514657,40.24844720496894,0.9996351981471764,0.0,0.290722,0.31469576953897005,-0.023973769538962825,0.0,0.0,0.0,0.0,0.0,0.0,0.0,30.07,0.0,f01
-34.99946436826474,15.999999912249253,53.00000000000001,65.49780533160947,-43.968227549952445,59.449541284403665,0.9996351981471764,0.0,0.289441,0.314462318073958,-0.02502131807395072,0.0,0.0,0.0,0.0,0.0,0.0,0.0,30.07,0.0,f01
-33.98355559270675,15.999999999997613,53.00000000000001,64.96061922982658,16.33875028402644,80.0,0.5000730570634313,1.0,0.289441,0.3140956503498036,-0.024654650349796206,0.0,0.0,0.0,0.0,0.0,0.0,0.0,30.07,0.0,f01
-33.98660463822046,16.000000000000004,53.00000000000001,64.96221436215602,5.534587423083356,80.0,0.5000730570634313,0.0,0.288161,0.3136115931038226,-0.025450593103815117,0.0,0.0,0.0,0.0,0.0,0.0,0.0,30.07,0.0,f01
-34.00000489241766,16.0,53.000000000000014,64.96922604344634,-46.93440597888171,80.0,0.5000730570634313,0.0,0.289441,0.3130250261134589,-0.02358402611345134,0.0,0.0,0.0,0.0,0.0,0.0,0.0,30.07,0.0,f01
-33.999999898248994,16.0,53.000000000000014,64.96922342987433,25.89595155486303,80.0,0.5411734282649642,1.0,0.288161,0.31234988816551473,-0.024188888165507287,0.0,0.0,0.0,0.0,0.0,0.0,0.0,30.07,0.0,f01
-33.99607810005832,16.0,53.00000000000001,64.9671711419334,20.85986069624956,76.03960396039604,0.5411734282649642,0.0,0.288161,0.3115991930548543,-0.023438193054847026,0.0,0.0,0.0,0.0,0.0,0.0,0.0,30.07,0.0,f01
-33.995716462172396,16.000000000010566,53.0000000000394,64.96698190451004,-28.96979472801302,68.57142857142857,0.5411734282649642,0.0,0.288161,0.31078504592754047,-0.022624045927533393,0.0,0.0,0.0,0.0,0.0,0.0,0.0,30.07,0.0,f01
-34.011657367897946,16.000000406316005,53.000001514708345,64.97532616672643,-2.4580796783958294,62.4390243902439,0.5411734282649642,0.0,0.28688,0.30991865946951247,-0.023038659469505562,0.0,0.0,0.0,0.0,0.0,0.0,0.0,30.07,0.0,f01
-33.992460792500644,16.015626033612264,52.00070635165096,64.15653613661546,47.13063296357767,60.0,0.9923036146499847,1.0,0.28688,0.309010369474175,-0.022130369474168212,0.0,0.0,0.0,0.0,0.0,0.0,0.0,30.07,0.0,f01
-34.00388946937212,16.000000373344776,53.012006777759105,64.98105395880776,3.5698168577247813,60.0,0.9923036146499847,0.0,0.28688,0.3080696493634615,-0.021189649363454778,0.0,0.0,0.0,0.0,0.0,0.0,0.0,30.07,0.0,f01
-34.999450426868556,15.98477253372634,52.983716205043564,65.48090306367497,-48.83037630510377,60.0,0.9923036146499847,0.0,0.28688,0.3071051324284196,-0.020225132428412954,0.0,0.0,0.0,0.0,0.0,0.0,0.0,30.07,0.0,f01
-34.999116924464104,15.99999794098208,53.00000574224719,65.49762383691468,18.83203435933091,60.0,0.9923036146499847,0.0,0.28688,0.3061246444803635,-0.019244644480356975,0.0,0.0,0.0,0.0,0.0,0.0,0.0,30.07,0.0,f01
-33.98834553501882,16.999098664939346,53.00000000010763,65.21638588299405,29.088333253660554,60.0,0.7650718313601718,1.0,0.28688,0.30513524047743973,-0.01825524047743329,0.0,0.0,0.0,0.0,0.0,0.0,0.0,30.07,0.0,f01
-34.00114821037295,16.00009105283352,52.99999816661521,64.96984530521776,-27.090963563118343,64.15841584158416,0.7650718313601718,0.0,0.28688,0.30414324177484237,-0.017263241774835895,0.0,0.0,0.0,0.0,0.0,0.0,0.0,30.07,0.0,f01
-34.00376054331187,16.016429015347047,53.994379610642184,65.7888650079075,-17.62443662000776,73.63636363636363,0.7650718313601718,0.0,0.284319,0.3031542676259988,-0.018835267625992247,0.0,0.0,0.0,0.0,0.0,0.0,0.0,30.07,0.0,f01
-32.98334446889865,15.995188577735114,53.998492798028494,65.26549083895769,26.458536579496588,80.0,0.9982159956862549,1.0,0.28688,0.30217325459012906,-0.015293254590122214,0.0,0.0,0.0,0.0,0.0,0.0,0.0,30.09,0.0,f01
-32.99774346397388,16.993738532719437,54.01702581853448,65.53989091624189,3.285169114298161,80.0,0.9982159956862549,0.0,0.288161,0.30120448499314795,-0.013043484993140972,0.0,0.0,0.0,0.0,0.0,0.0,0.0,30.09,0.0,f01
-31.00330381711704,16.000362116695833,54.01841216505474,64.30556187668057,-42.22264474767617,80.0,0.9982159956862549,0.0,0.288161,0.3002516486674141,-0.012090648667406886,0.0,0.0,0.0,0.0,0.0,0.0,0.0,30.09,0.0,f01
-31.015557806708816,16.981006748388623,54.00116033463087,64.54800332881433,27.484057654184497,80.0,0.6022957871626047,1.0,0.288161,0.2993179164442759,-0.01115691644426851,0.0,0.0,0.0,0.0,0.0,0.0,0.0,30.09,0.0,f01
-30.99486714544721,15.982536341616154,55.0130606531971,65.13493762726227,27.41782567715033,76.03960396039604,0.6022957871626047,0.0,0.288161,0.2984059947376978,-0.010244994737690303,0.0,0.0,0.0,0.0,0.0,0.0,0.0,30.07,0.0,f01
-31.01308150266864,16.998908534637,54.99957852230271,65.38904918479138,-16.078334759337988,68.57142857142857,0.6022957871626047,0.0,0.28688,0.29751816109464335,-0.010638161094635772,0.0,0.0,0.0,0.0,0.0,0.0,0.0,30.07,0.0,f01
-31.976093740988514,15.998783176147638,55.00019276717405,65.60070760652033,-3.490458377008956,62.4390243902439,0.6022957871626047,0.0,0.288161,0.2966562897639953,-0.008495289763987737,0.0,0.0,0.0,0.0,0.0,0.0,0.0,30.07,0.0,f01
-32.00413024634305,16.991963264965595,55.02006910965156,65.88018801774676,38.6081317687178,60.0,0.9999896123915059,1.0,0.288161,0.2958218794073955,-0.00766087940738812,0.0,0.0,0.0,0.0,0.0,0.0,0.0,30.07,0.0,f01
-30.979701091979884,16.000027993294108,53.980712305866966,64.26243129997022,3.4664935618266157,60.0,0.9999896123915059,0.0,0.288161,0.29501609203804763,-0.0068550920380404355,0.0,0.0,0.0,0.0,0.0,0.0,0.0,30.05,0.0,f01
-31.000001454212683,15.9995953458148,55.00561035403603,65.1352770149252,-42.665349628980145,60.0,0.9999896123915059,0.0,0.28688,0.29423979091888625,-0.007359790918879151,0.0,0.0,0.0,0.0,0.0,0.0,0.0,30.05,0.0,f01
-31.076582799610314,16.993286648621485,54.999865570128165,65.41797155488256,5.8346523548191875,60.0,0.9999896123915059,0.0,0.28688,0.2934935621116968,-0.006613562111689856,0.0,0.0,0.0,0.0,0.0,0.0,0.0,30.05,0.0,f01
-32.02060698181161,16.000110797237227,54.0013084884456,64.78783941043085,19.80345515050625,60.0,0.8217074768010447,1.0,0.288161,0.2927777288018934,-0.0046167288018866895,0.0,0.0,0.0,0.0,0.0,0.0,0.0,30.05,0.0,f01
-28.983859010337632,16.005089659942847,53.97839699213696,63.323726359040805,0.6840243847558343,64.15841584158416,0.8217074768010447,0.0,0.288161,0.2920923797450785,-0.00393137974507204,0.0,0.0,0.0,0.0,0.0,0.0,0.0,30.07,0.0,f01
-30.991181979439986,16.024282794956328,55.02237768578348,65.15130885694087,-57.10910764278376,73.63636363636363,0.8217074768010447,0.0,0.28688,0.291437408769842,-0.004557408769835768,0.0,0.0,0.0,0.0,0.0,0.0,0.0,30.07,0.0,f01
-33.003287211526384,16.99245586068374,54.991832742184755,66.34803833790573,24.444104305029363,80.0,0.5518983208684639,1.0,0.28688,0.2908125409112414,-0.003932540911235502,0.0,0.0,0.0,0.0,0.0,0.0,0.0,30.07,0.0,f01
-31.018005654473445,15.996022070231962,54.000433315137265,64.29647109348133,15.773484914790833,76.03960396039604,0.5518983208684639,0.0,0.288161,0.29021734517851394,-0.0020563451785082995,0.0,0.0,0.0,0.0,0.0,0.0,0.0,30.07,0.0,f01
-31.028845118233637,15.993723556629519,54.00164464203971,64.30214651644495,-23.5942847358635,68.57142857142857,0.5518983208684639,0.0,0.285599,0.28965125228332533,-0.00405225228331992,0.0,0.0,0.0,0.0,0.0,0.0,0.0,30.05,0.0,f01
-31.995716492536534,17.026699069364636,54.98246767810553,65.85367193288006,-27.144394675707026,62.4390243902439,0.5518983208684639,0.0,0.28688,0.28911357123929676,-0.002233571239291441,0.0,0.0,0.0,0.0,0.0,0.0,0.0,30.05,0.0,f01
-32.02226679317625,15.998069302580257,54.00000109482192,64.7870659176991,33.63367762621425,60.0,0.9615539893993864,1.0,0.28688,0.2886034987488438,-0.0017234987488386417,0.0,0.0,0.0,0.0,0.0,0.0,0.0,30.05,0.0,f01
-33.00596571719406,17.00058366195928,53.97569789495162,65.5117514726858,19.580776673764955,60.0,0.9615539893993864,0.0,0.28688,0.2881201366668824,-0.0012401366668774415,0.0,0.0,0.0,0.0,0.0,0.0,0.0,30.05,0.0,f01
-32.00158075158962,16.02247255455632,54.00000825652488,64.78288114206389,-20.498975137084475,60.0,0.9615539893993864,0.0,0.285599,0.2876625145190213,-0.0020635145190165223,0.0,0.0,0.0,0.0,0.0,0.0,0.0,30.05,0.0,f01
-32.00435205731727,16.998016790468213,54.00000000022213,65.03238520492492,14.159872297435543,60.0,0.9615539893993864,0.0,0.285599,0.28722959879198945,-0.0016305987919847326,0.0,0.0,0.0,0.0,0.0,0.0,0.0,30.05,0.0,f01
-32.968416101425326,17.02281324362904,53.99999999995122,65.51864338460409,26.039703254051226,60.0,0.8403435794818543,1.0,0.284319,0.2868202890355086,-0.0025012890355040045,0.0,0.0,0.0,0.0,0.0,0.0,0.0,30.05,0.0,f01
-32.00003618632489,15.993418067404649,53.99999813924391,64.77492984514328,-6.354700914145799,64.15841584158416,0.8403435794818543,0.0,0.284319,0.28643340997789,-0.002114409977885601,0.0,0.0,0.0,0.0,0.0,0.0,0.0,30.05,0.0,f01
-31.002042046280312,16.989278067752387,55.02395845711243,65.4018209577744,-49.61236097195975,73.63636363636363,0.8403435794818543,0.0,0.285599,0.2860677088507316,-0.00046870885072725424,0.0,0.0,0.0,0.0,0.0,0.0,0.0,30.05,0.0,f01
-32.00704700099123,15.998195129552597,54.00000318058818,64.77957740391979,19.529796080803514,80.0,0.626459976070032,1.0,0.290722,0.2857218823723167,0.005000117627687587,0.0,0.0,0.0,0.0,0.0,0.0,0.0,30.05,0.0,f01
-31.975610644198046,16.972849697323998,53.97080041071341,64.98741878156392,19.271478827523357,76.03960396039604,0.626459976070032,0.0,0.292003,0.28539465785362267,0.006608342146381553,0.0,0.0,0.0,0.0,0.0,0.0,0.0,30.05,0.0,f01
-32.01072543034537,16.993958298457652,53.993092956349024,65.02872633090412,-32.545878426233834,68.57142857142857,0.626459976070032,0.0,0.285599,0.2850848888093397,0.000514111190664422,0.0,0.0,0.0,0.0,0.0,0.0,0.0,30.05,0.0,f01
-31.9467481177486,18.00324988703458,53.9947540192783,65.26978767696625,19.612835042803273,62.4390243902439,0.626459976070032,0.0,0.285599,0.2847915766120172,0.0008074233879869245,0.0,0.0,0.0,0.0,0.0,0.0,0.0,30.03,0.0,f01
-32.92119427017133,17.001434549489296,52.98002483112143,64.65088429419333,30.53659851482304,60.0,0.7910105196088592,1.0,0.283038,0.28451380907222307,-0.001475809072218802,0.0,0.0,0.0,0.0,0.0,0.0,0.0,30.03,0.0,f01
-34.00812727337777,17.02790708473644,52.98194487337935,65.21954325886134,-12.757819717566226,64.15841584158416,0.7910105196088592,0.0,0.285599,0.2842506953392824,0.0013483046607219535,0.0,0.0,0.0,0.0,0.0,0.0,0.0,30.03,0.0,f01
-32.03556237745589,17.03181195587921,53.01893356110179,64.24458880946179,-23.984581177639736,73.63636363636363,0.7910105196088592,0.0,0.284319,0.28400134599192745,0.0003176540080769841,0.0,0.0,0.0,0.0,0.0,0.0,0.0,30.03,0.0,f01
-33.03172993483393,16.978100367399318,53.02190383649776,64.7354104105327,24.480896298634438,80.0,0.9007767181484887,1.0,0.285599,0.2837648861424944,0.001834113857510233,0.0,0.0,0.0,0.0,0.0,0.0,0.0,30.05,0.0,f01
-31.993419347584002,17.001491758884438,53.99949974813006,65.02749861886183,3.2108341785461785,76.03960396039604,0.9007767181484887,0.0,0.284319,0.2835404741189971,0.0007785258810076605,0.0,0.0,0.0,0.0,0.0,0.0,0.0,30.05,0.0,f01
-32.04338289285752,18.02684656693197,53.997930918121824,65.32627440627728,-46.189913200547785,68.57142857142857,0.9007767181484887,0.0,0.284319,0.2833273104994586,0.0009916895005462351,0.0,0.0,0.0,0.0,0.0,0.0,0.0,30.05,0.0,f01
-32.98587788070149,17.0057945177807,53.99309314516731,65.51732056581865,25.705758173742712,62.4390243902439,0.9007767181484887,0.0,0.284319,0.2831246375328028,0.0011943624672020748,0.0,0.0,0.0,0.0,0.0,0.0,0.0,30.05,0.0,f01
-33.0138782577702,17.00892670465862,53.99763018429314,65.53597340989914,31.31163883919802,60.0,0.72747171898685,1.0,0.284319,0.28293173813006445,0.0013872618699404815,0.0,0.0,0.0,0.0,0.0,0.0,0.0,30.01,0.0,f01
-36.978710546803526,17.032006601374658,51.95130598650703,66.00342776157333,-20.07369278207992,64.15841584158416,0.72747171898685,0.0,0.281757,0.2827479344500634,-0.0009909344500583285,0.0,0.0,0.0,0.0,0.0,0.0,0.0,30.01,0.0,f01
-36.0128618523962,16.998373098235646,52.005126004782966,65.5011758486819,-17.926208017210605,73.63636363636363,0.72747171898685,0.0,0.280476,0.2825725677932285,-0.0020965677932231973,0.0,0.0,0.0,0.0,0.0,0.0,0.0,30.01,0.0,f01
-36.04863988137059,16.990806454268768,50.97400471514012,64.70348597998635,29.866501140923994,80.0,0.9823631411896092,1.0,0.281757,0.2824049598321833,-0.0006479598321778761,0.0,0.0,0.0,0.0,0.0,0.0,0.0,30.01,0.0,f01
-38.01865420981342,18.00002042070166,50.0000029746173,65.34079201029614,13.36748617879328,77.06111617878763,0.9823631411896092,0.0,0.280476,0.28224438573172383,-0.0017683857317183419,0.0,0.0,0.0,0.0,0.0,0.0,0.0,30.05,0.0,f01
-37.00553654653983,17.99755482287873,50.03196135114476,64.78054392595251,-68.77014730693251,70.82926829268293,0.9823631411896092,0.0,0.283038,0.28209007444795264,0.0009479255520528605,0.0,0.0,0.0,0.0,0.0,0.0,0.0,30.05,0.0,f01
-37.00636237902466,17.0056053822271,50.99334851897077,65.26088464096193,23.388520435428983,64.54678057928736,0.9823631411896092,0.0,0.280476,0.2819412240234896,-0.001465224023484168,0.0,0.0,0.0,0.0,0.0,0.0,0.0,30.05,0.0,f01
-35.02796189393372,16.991711262658047,51.997810526489495,64.95728339166529,36.533429259888464,60.0,0.7607859395802711,1.0,0.281757,0.281797013591802,-4.001359179662753e-05,0.0,0.0,0.0,0.0,0.0,0.0,0.0,30.05,0.0,f01
-33.91827900826269,17.03339728802341,53.052082368045525,65.23120202510363,-28.257714555113406,57.01351297568634,0.7607859395802711,0.0,0.281757,0.2816566060156466,0.00010039398435868685,0.0,0.0,0.0,0.0,0.0,0.0,0.0,30.03,0.0,f01
-34.01234180559326,17.007614820342543,53.0078560454643,65.23749810894275,3.3581242079970384,54.535334561857624,0.7607859395802711,0.0,0.281757,0.28151915340158307,0.00023784659842223787,0.0,0.0,0.0,0.0,0.0,0.0,0.0,30.03,0.0,f01
-33.00055739044115,17.031523526061704,53.01171394002139,64.72519908472474,2.190879792327211,52.317895899574935,0.7607859395802711,0.0,0.284319,0.28138381468040435,0.0029351853196009415,0.0,0.0,0.0,0.0,0.0,0.0,0.0,30.03,0.0,f01
-33.000051660982166,17.00907992598056,53.99413438516901,65.52616849442349,-42.92277271537485,50.182158456919765,0.7607859395802711,0.0,0.281757,0.2812497822328017,0.0005072177672035974,0.0,0.0,0.0,0.0,0.0,0.0,0.0,30.03,0.0,f01
-30.92817426671103,16.001643185419493,53.99999959910264,64.25421779781163,34.59310832536386,48.0,0.6643861263425795,1.0,0.283038,0.28111630232843654,0.001921697671568826,0.0,0.0,0.0,0.0,0.0,0.0,0.0,30.01,0.0,f01
-31.931209132862428,15.967608424189448,53.990737888322286,64.7268600597956,24.475338034410875,45.437523779922515,0.6643861263425795,0.0,0.280476,0.280982674145435,-0.0005066741454296869,0.0,0.0,0.0,0.0,0.0,0.0,0.0,30.01,0.0,f01
-32.01378790945341,16.974120729828066,54.00004210030834,65.03082298185467,-1.176969046153223,42.59649440098868,0.6643861263425795,0.0,0.281757,0.2808482335044184,0.0009087664955867657,0.0,0.0,0.0,0.0,0.0,0.0,0.0,30.01,0.0,f01
-30.98651868077698,15.992537554812072,54.00000087086402,64.28005671629056,7.768661271980239,39.89742093648097,0.6643861263425795,0.0,0.281757,0.2807123396601662,0.0010446603398388838,0.0,0.0,0.0,0.0,0.0,0.0,0.0,30.01,0.0,f01
-33.02131311254466,17.03854758751639,54.033127004677524,65.57665771806602,5.236948340398227,37.59387428449816,0.6643861263425795,0.0,0.281757,0.2805743773871981,0.0011826226128068972,0.0,0.0,0.0,0.0,0.0,0.0,0.0,30.01,0.0,f01
-32.96433760528453,15.999952798134556,53.99946738799934,65.257861759985,-40.22443853297709,35.828357735944735,0.6643861263425795,0.0,0.283038,0.2804337713309891,0.002604228669015869,0.0,0.0,0.0,0.0,0.0,0.0,0.0,30.01,0.0,f01
-31.998214372479076,17.012066581588986,54.958105167717825,65.83076375092026,-20.48174188695188,34.69338821671297,0.6643861263425795,0.0,0.283038,0.2802900065426459,0.0027479934573591182,0.0,0.0,0.0,0.0,0.0,0.0,0.0,30.01,0.0,f01
-32.035117839737545,15.999833808542611,53.99988032343901,64.79375380275934,39.59136741991311,34.285714285714285,0.999907318352876,1.0,0.283038,0.28014265216591305,0.002895347834091883,0.0,0.0,0.0,0.0,0.0,0.0,0.0,30.01,0.0,f01
-33.98083232039987,17.9871105991034,55.059310123812146,67.15475220862358,1.4340350243971758,36.27442318801183,0.999907318352876,0.0,0.281757,0.2799913760849821,0.001765623915022539,0.0,0.0,0.0,0.0,0.0,0.0,0.0,30.01,0.0,f01
-33.96242260563952,16.96964949109408,52.969573149794385,65.17047516142614,-24.190701939084324,41.90954773869347,0.999907318352876,0.0,0.281757,0.27983594139121853,0.001921058608785828,0.0,0.0,0.0,0.0,0.0,0.0,0.0,30.01,0.0,f01
-33.02983238083199,16.991145992803656,53.01209454005042,64.72983111964582,3.9737963820305793,50.807672171719574,0.999907318352876,0.0,0.279196,0.27967618773659764,-0.000480187736593587,0.0,0.0,0.0,0.0,0.0,0.0,0.0,30.01,0.0,f01
-32.97402371230575,16.00003561904258,52.9919810223761,64.4316493058047,24.684945202829606,60.0,0.9266910103979661,1.0,0.281757,0.2795120067436548,0.002244993256348831,0.0,0.0,0.0,0.0,0.0,0.0,0.0,30.01,0.0,f01
-34.04509641127719,16.00000000095403,53.99387482416808,65.80582883158314,3.0692955731606886,67.80998268463449,0.9266910103979661,0.0,0.280476,0.2793433297874483,0.0011326702125549148,0.0,0.0,0.0,0.0,0.0,0.0,0.0,30.01,0.0,f01
-34.002152169139016,16.000000000000025,53.038115510520214,65.00144651498589,-36.881578011199366,75.98447781339632,0.9266910103979661,0.0,0.280476,0.27917013425210646,0.0013058657478964247,0.0,0.0,0.0,0.0,0.0,0.0,0.0,30.01,0.0,f01
-34.00241605966109,16.000000000000004,53.00063491052299,64.97100583193127,43.21112494366223,80.0,0.7328109586109098,1.0,0.279196,0.278992446905245,0.00020355309475755118,0.0,0.0,0.0,0.0,0.0,0.0,0.0,30.01,0.0,f01
-34.000000064698014,16.0,53.00000001700184,64.96922353085083,28.068811892915065,76.03960396039604,0.7328109586109098,0.0,0.279196,0.2788103321922578,0.00038566780774454466,0.0,0.0,0.0,0.0,0.0,0.0,0.0,30.01,0.0,f01
-34.000000000001734,16.000000000000004,53.00000000000046,64.96922348312444,-15.89647111676736,68.57142857142857,0.7328109586109098,0.0,0.279196,0.27862387765562757,0.0005721223443744891,0.0,0.0,0.0,0.0,0.0,0.0,0.0,29.99,0.0,f01
-34.00000000000001,16.000000000000004,53.00000000000001,64.96922348312316,-39.88824656132639,62.4390243902439,0.7328109586109098,0.0,0.279196,0.27843318867587274,0.0007628113241289961,0.0,0.0,0.0,0.0,0.0,0.0,0.0,29.99,0.0,f01
-34.0,16.0,52.99999999999999,64.96922348312314,12.208918205882252,60.0,0.7621474680177367,1.0,0.277915,0.27823838947583207,-0.0003233894758306363,0.0,0.0,0.0,0.0,0.0,0.0,0.0,29.99,0.0,f01
-33.99999999989182,15.999999999912955,52.999999999516966,64.96922348265105,12.197262499798706,60.0,0.7621474680177367,0.0,0.277915,0.2780396181783054,-0.00012461817830420317,0.0,0.0,0.0,0.0,0.0,0.0,0.0,29.99,0.0,f01
-33.99999589332126,15.99999669568542,52.99998166367599,64.96920556200297,-14.059590652341504,60.0,0.7621474680177367,0.0,0.277915,0.27783701591479154,7.798408520960426e-05,0.0,0.0,0.0,0.0,0.0,0.0,0.0,30.01,0.0,f01
-36.145147283605546,17.02497892663432,54.069197129798106,67.22945528462095,-3.099909998132854,60.0,0.7621474680177367,0.0,0.276634,0.277630719138297,-0.0009967191382959217,0.0,0.0,0.0,0.0,0.0,0.0,0.0,30.01,0.0,f01
-32.05102722036646,16.008384624366926,53.00975002339343,63.98101532255485,12.409706634056668,60.0,0.9803538075570389,1.0,0.277915,0.2774208551349818,0.0004941448650192187,0.0,0.0,0.0,0.0,0.0,0.0,0.0,30.01,0.0,f01
-34.0374205578594,15.983308268288685,53.000000201957626,64.9847071459066,0.41513639588958146,64.15841584158416,0.9803538075570389,0.0,0.277915,0.27720754378220186,0.0007074562177992249,0.0,0.0,0.0,0.0,0.0,0.0,0.0,30.01,0.0,f01
-34.99626173558976,16.997607381172593,52.997761254656744,65.74511153048562,-21.544602993091665,73.63636363636363,0.9803538075570389,0.0,0.276634,0.27699090860073877,-0.00035690860073765793,0.0,0.0,0.0,0.0,0.0,0.0,0.0,30.01,0.0,f01
-36.03281804256347,16.99474797229207,51.970693532105756,65.48387909201983,17.93213187461866,80.0,0.6861498636473364,1.0,0.276634,0.2767710818330484,-0.0001370818330472158,0.0,0.0,0.0,0.0,0.0,0.0,0.0,30.01,0.0,f01
-35.00017265555503,17.007505456544347,51.99999921578665,64.94818893714327,-9.90852019608136,80.0,0.6861498636473364,0.0,0.276634,0.27654819743736553,8.580256263568463e-05,0.0,0.0,0.0,0.0,0.0,0.0,0.0,30.01,0.0,f01
-35.0077831948782,17.00265823803771,51.999999999979025,64.9510220964761,-25.53242427135611,80.0,0.6861498636473364,0.0,0.277915,0.2763223903088224,0.0015926096911790056,0.0,0.0,0.0,0.0,0.0,0.0,0.0,30.01,0.0,f01
-35.000000230780905,17.000000071123544,52.00000000000001,64.94613166750476,11.071280062427949,80.0,0.7866387587122429,1.0,0.276634,0.2760938108805201,0.000540189119481537,0.0,0.0,0.0,0.0,0.0,0.0,0.0,30.01,0.0,f01
-35.00085493107662,17.000000000001904,52.00000000000001,64.94659225784164,3.453674998731971,76.03960396039604,0.7866387587122429,0.0,0.276634,0.2758626398357442,0.0007713601642576378,0.0,0.0,0.0,0.0,0.0,0.0,0.0,30.01,0.0,f01
-34.99927299474653,17.000000000000004,52.0,64.94573973834461,-22.822281603030856,68.57142857142857,0.7866387587122429,0.0,0.276634,0.2756290907145976,0.0010049092854044288,0.0,0.0,0.0,0.0,0.0,0.0,0.0,30.01,0.0,f01
-34.999999980551635,17.000000000000004,52.00000000000001,64.94613151403719,9.278486109189037,62.4390243902439,0.7866387587122429,0.0,0.276634,0.2753934095661436,0.0012405904338585547,0.0,0.0,0.0,0.0,0.0,0.0,0.0,30.01,0.0,f01
-34.999999999847425,17.000000000000004,52.00000000000001,64.94613152443586,14.470100109345507,60.0,0.7698418534618107,1.0,0.280476,0.2751558899516077,0.005320110048394494,0.0,0.0,0.0,0.0,0.0,0.0,0.0,29.99,0.0,f01
-34.99999423226657,17.000000000000004,52.000000000000014,64.94612841623967,1.7962118196472043,64.15841584158416,0.7698418534618107,0.0,0.277915,0.27491691244461963,0.0029980875553826196,0.0,0.0,0.0,0.0,0.0,0.0,0.0,29.99,0.0,f01
-35.947620709542015,17.000000000000004,52.000000000454634,65.46167913156808,-27.36355859094777,73.63636363636363,0.7698418534618107,0.0,0.276634,0.27467698114960004,0.0019570188504021845,0.0,0.0,0.0,0.0,0.0,0.0,0.0,29.99,0.0,f01
-35.00001833118109,17.0,52.00001724206533,64.9461552084348,15.16051333950856,80.0,0.5727132301876127,1.0,0.276634,0.2744367205981033,0.0021972794018989016,0.0,0.0,0.0,0.0,0.0,0.0,0.0,29.99,0.0,f01
-35.00000000049025,16.999999999966857,51.960682803861204,64.91465595284834,9.749063523742482,76.03960396039604,0.5727132301876127,0.0,0.276634,0.27419685131287064,0.0024371486871315093,0.0,0.0,0.0,0.0,0.0,0.0,0.0,29.99,0.0,f01
-35.000000000000654,16.99999874298397,52.00339540539841,64.94884980468642,-7.750996962327944,68.57142857142857,0.5727132301876127,0.0,0.276634,0.2739581806412294,0.002675819358772644,0.0,0.0,0.0,0.0,0.0,0.0,0.0,29.99,0.0,f01
-35.000000024366216,16.952171144099992,51.999794726735395,64.93346409846859,-17.94871277982978,62.4390243902439,0.5727132301876127,0.0,0.276634,0.2737216088329239,0.0029123911670781225,0.0,0.0,0.0,0.0,0.0,0.0,0.0,29.99,0.0,f01
-35.00092392370813,17.000014831832942,52.000247559122265,64.94683153169018,21.836535360410814,60.0,0.8890903519592753,1.0,0.275354,0.27348813507285574,0.0018658649271462047,0.0,0.0,0.0,0.0,0.0,0.0,0.0,29.99,0.0,f01
-34.99922418191821,17.00000000039466,51.997104607501335,64.94339520623343,5.558530148394229,60.0,0.8890903519592753,0.0,0.276634,0.2732588573313231,0.0033751426686788244,0.0,0.0,0.0,0.0,0.0,0.0,0.0,30.01,0.0,f01
-34.99999997922214,16.999999927032825,51.999999929261335,64.94613143758329,-18.113238278036786,60.0,0.8890903519592753,0.0,0.276634,0.2730349751445461,0.0035990248554557897,0.0,0.0,0.0,0.0,0.0,0.0,0.0,30.01,0.0,f01
-34.99999869511232,16.9972336212626,52.00025313953745,64.94560944366923,1.0135366277148057,60.0,0.8890903519592753,0.0,0.275354,0.2728178013841512,0.002536198615850706,0.0,0.0,0.0,0.0,0.0,0.0,0.0,30.01,0.0,f01
-34.95035025554237,16.99141222296814,51.99698216467421,64.9147227256604,17.09365969517354,60.0,0.9402649731520536,1.0,0.275354,0.27260876771818016,0.0027452322818217233,0.0,0.0,0.0,0.0,0.0,0.0,0.0,30.01,0.0,f01
-34.999739987709276,16.99071801456779,52.01109281001505,64.95244470495174,6.490781792288259,60.0,0.9402649731520536,0.0,0.276634,0.27240942066316753,0.004224579336834502,0.0,0.0,0.0,0.0,0.0,0.0,0.0,29.97,0.0,f01
-35.04457226974722,17.002412910161688,51.943930711330715,64.9259272408234,-21.88356537759427,60.0,0.9402649731520536,0.0,0.275354,0.27222142647454056,0.003132573525461549,0.0,0.0,0.0,0.0,0.0,0.0,0.0,29.97,0.0,f01
-34.00415487984235,15.983392077455854,53.05573995669812,65.0127903857907,-0.8971670844442571,60.0,0.9402649731520536,0.0,0.275354,0.2720465817659886,0.0033074182340137454,0.0,0.0,0.0,0.0,0.0,0.0,0.0,29.97,0.0,f01
-35.00116887584148,15.958961550709795,52.98278939835346,65.47477566882138,21.649295287490563,60.0,0.9619399314355546,1.0,0.275354,0.271886814542593,0.003467185457409647,0.0,0.0,0.0,0.0,0.0,0.0,0.0,29.97,0.0,f01
-32.87645832771505,16.993065948438392,50.93527871499153,62.960530654337965,-5.0196380900590105,64.15841584158416,0.9619399314355546,0.0,0.276634,0.2717441847300803,0.004889815269922574,0.0,0.0,0.0,0.0,0.0,0.0,0.0,29.97,0.0,f01
-34.057994964297,18.00085631320938,50.99068576039352,63.9063993924872,-31.025818928995523,73.63636363636363,0.9619399314355546,0.0,0.272792,0.2716208902224987,0.0011711097775042411,0.0,0.0,0.0,0.0,0.0,0.0,0.0,29.97,0.0,f01
-34.03669113985731,16.08912445320625,51.42057872819471,63.72936674848786,23.33694963250066,80.0,0.7486506080175074,1.0,0.274073,0.2715192570104494,0.0025537429895537136,0.0,0.0,0.0,0.0,0.0,0.0,0.0,29.97,0.0,f01
-34.9942306552998,16.9871907038531,50.04354207140545,63.38388541433796,9.588320567957135,74.49773755656109,0.7486506080175074,0.0,0.275354,0.27144171636846753,0.003912283631535548,0.0,0.0,0.0,0.0,0.0,0.0,0.0,29.97,0.0,f01
-35.01116191770691,17.007697713313366,51.998496154390125,64.95295869052818,-6.953945782454797,63.27440430438124,0.7486506080175074,0.0,0.275354,0.27139080563828377,0.003963194361719226,0.0,0.0,0.0,0.0,0.0,0.0,0.0,29.97,0.0,f01
-33.90258977373975,16.95207245166469,51.95767597408851,64.31452749108358,5.006796326293245,52.46653919694073,0.7486506080175074,0.0,0.275354,0.2713691925081003,0.003984807491902612,0.0,0.0,0.0,0.0,0.0,0.0,0.0,29.97,0.0,f01
-35.77693679149886,16.085059676491937,51.85904074433279,65.0236761334022,2.1912432525402434,44.234282643739924,0.7486506080175074,0.0,0.274073,0.27137968911360244,0.002693310886400439,0.0,0.0,0.0,0.0,0.0,0.0,0.0,29.97,0.0,f01
-30.915531585767177,16.01168368794161,55.07134746881622,65.15364471604298,-3.944919055695608,38.66604039455143,0.7486506080175074,0.0,0.276634,0.2714252497533667,0.005208750246636074,0.0,0.0,0.0,0.0,0.0,0.0,0.0,29.97,0.0,f01
-25.892777944913497,16.00954392024134,57.022446019051024,64.63977719821072,-35.70680341701178,35.406451612903226,0.7486506080175074,0.0,0.212599,0.2715088239300055,-0.05890982393000292,0.0,0.0,0.0,0.0,0.0,0.0,0.0,29.95,0.0,f01
-26.978216055149925,16.00391732793972,57.01469893815163,65.07399946496255,15.86435138466923,34.285714285714285,0.6350285882160391,1.0,0.276634,0.271632921169488,0.005001078830514567,0.0,0.0,0.0,0.0,0.0,0.0,0.0,29.95,0.0,f01
-29.0492164662101,15.999769169337211,55.952603413317384,65.04262771060823,-34.36022302050714,40.24844720496894,0.6350285882160391,0.0,0.259985,0.27179928427438854,-0.011814284274386102,0.0,0.0,0.0,0.0,0.0,0.0,0.0,29.95,0.0,f01
-30.039937632209167,16.003628282736084,56.01955625217086,65.54925364829977,-5.776054858579783,59.449541284403665,0.6350285882160391,0.0,0.277915,0.2720090798850868,0.0059059201149154325,0.0,0.0,0.0,0.0,0.0,0.0,0.0,29.95,0.0,f01
-28.898999935714098,15.954582986964505,56.99365682546212,65.86332692713667,60.0569181820993,80.0,0.9972988350443283,1.0,0.277915,0.272263282768882,0.0056517172311200846,0.0,0.0,0.0,0.0,0.0,0.0,0.0,29.95,0.0,f01
-29.963338681127677,17.00701779665159,56.000004570925576,65.74983521803892,57.029923720264364,74.81296758104737,0.9972988350443283,0.0,0.280476,0.2725629241699055,0.007913075830096393,0.0,0.0,0.0,0.0,0.0,0.0,0.0,29.95,0.0,f01
-29.04571552529352,16.945521279537605,55.99999999956753,65.32077986187169,-6.3570459418375425,64.79481641468684,0.9972988350443283,0.0,0.279196,0.27290923469517486,0.006286765304827016,0.0,0.0,0.0,0.0,0.0,0.0,0.0,29.95,0.0,f01
-29.000001225404414,16.01525399194999,55.99997899269348,65.06524478308093,-10.073221074901742,55.865921787709496,0.9972988350443283,0.0,0.279196,0.2733037000108102,0.005892299989191574,0.0,0.0,0.0,0.0,0.0,0.0,0.0,29.95,0.0,f01
-29.00015942738702,16.957002970279373,56.046182904066534,65.34312369839697,-11.892881772706597,50.08347245409015,0.9972988350443283,0.0,0.279196,0.273748053719469,0.005447946280532811,0.0,0.0,0.0,0.0,0.0,0.0,0.0,29.95,0.0,f01
-29.036987277520897,16.951634305278343,56.02374468855954,65.33884376619855,27.753966493353673,48.0,0.9646224025118235,1.0,0.277915,0.2742442531359691,0.003670746864032788,0.0,0.0,0.0,0.0,0.0,0.0,0.0,29.95,0.0,f01
-29.948398715073854,16.058504609747942,55.009220210117476,64.65907874400571,-47.8000297727733,53.553719008264466,0.9646224025118235,0.0,0.277915,0.274794447046348,0.0031205529536539405,0.0,0.0,0.0,0.0,0.0,0.0,0.0,29.95,0.0,f01
-30.01597898946598,15.981848614492653,55.99579325422529,65.5126502440755,12.892847204144086,68.21052631578947,0.9646224025118235,0.0,0.277915,0.2754009384314018,0.0025140615686000773,0.0,0.0,0.0,0.0,0.0,0.0,0.0,29.95,0.0,f01
-30.04205279339519,15.955318200694114,56.0474727163935,65.562308629436,16.046052979262676,80.0,0.7128507058060044,1.0,0.279196,0.2760661542865793,0.003129845713422489,0.0,0.0,0.0,0.0,0.0,0.0,0.0,29.93,0.0,f01
-29.994779888436668,16.000014667299563,56.000001687689846,65.51097220260765,-25.05427750063522,80.0,0.7128507058060044,0.0,0.277915,0.27679262855635073,0.0011223714436510643,0.0,0.0,0.0,0.0,0.0,0.0,0.0,29.93,0.0,f01
-29.027911595242948,16.938481239286904,56.01589846493658,65.32467128971258,-4.856739040310206,80.0,0.7128507058060044,0.0,0.277915,0.2775829828274509,0.0003320171725508824,0.0,0.0,0.0,0.0,0.0,0.0,0.0,29.93,0.0,f01
-28.993991204720444,16.01301665811627,55.999933768461545,65.06197668795957,24.074046099243958,80.0,0.9810099300676645,1.0,0.276634,0.2784398894213614,-0.0018058894213596349,0.0,0.0,0.0,0.0,0.0,0.0,0.0,29.93,0.0,f01
-28.87566128711659,16.012908726661106,55.999977765466895,65.00934217779357,6.259130256308075,76.03960396039604,0.9810099300676645,0.0,0.279196,0.27936602594480964,-0.00017002594480784207,0.0,0.0,0.0,0.0,0.0,0.0,0.0,29.95,0.0,f01
-28.931489690473384,17.05107475880088,56.04843047334929,65.33909093847306,-37.902160193858656,68.57142857142857,0.9810099300676645,0.0,0.276634,0.2803640395133254,-0.0037300395133235006,0.0,0.0,0.0,0.0,0.0,0.0,0.0,29.95,0.0,f01
-30.19866724287499,15.92198144256041,56.00000129263646,65.58558638205817,14.044825797096633,62.4390243902439,0.9810099300676645,0.0,0.277915,0.28143651444108764,-0.0035215144410856553,0.0,0.0,0.0,0.0,0.0,0.0,0.0,29.95,0.0,f01
-28.97394655292194,16.000405562148753,55.99997735621597,65.04998094466684,18.983745759896863,60.0,0.7366947089799688,1.0,0.277915,0.28258593108603675,-0.004670931086034745,0.0,0.0,0.0,0.0,0.0,0.0,0.0,29.95,0.0,f01
-27.827859331489375,16.009210418350634,56.049146571053846,64.59250269602242,-26.095247565971356,64.15841584158416,0.7366947089799688,0.0,0.277915,0.2838146249105326,-0.005899624910530678,0.0,0.0,0.0,0.0,0.0,0.0,0.0,29.95,0.0,f01
-29.01476188779966,16.004426360816645,55.99555526787402,65.06535391667403,-2.691643455962559,73.63636363636363,0.7366947089799688,0.0,0.275354,0.2851247426134717,-0.009770742613469826,0.0,0.0,0.0,0.0,0.0,0.0,0.0,29.95,0.0,f01
-29.928504316172056,15.999743929613862,56.0002556731396,65.4808049116178,30.304679085122178,80.0,0.9801490378657124,1.0,0.276634,0.2865181769319689,-0.009884176931967052,0.0,0.0,0.0,0.0,0.0,0.0,0.0,29.95,0.0,f01
-30.022746705363918,15.98947257646355,55.99550683926416,65.51736669917373,1.081175120563643,76.03960396039604,0.9801490378657124,0.0,0.276634,0.28799649223555757,-0.011362492235555825,0.0,0.0,0.0,0.0,0.0,0.0,0.0,29.95,0.0,f01
-30.030659302643308,16.00507698751231,55.010907556266204,64.68541518527728,-37.14031541022015,68.57142857142857,0.9801490378657124,0.0,0.276634,0.28956086525643043,-0.012926865256428752,0.0,0.0,0.0,0.0,0.0,0.0,0.0,29.97,0.0,f01
-29.92307802858018,16.000328906634305,55.9861813645216,65.46643130342513,17.35389866626783,62.4390243902439,0.9801490378657124,0.0,0.276634,0.2912120347989979,-0.014578034798996197,0.0,0.0,0.0,0.0,0.0,0.0,0.0,29.97,0.0,f01
-29.857588718236983,16.068451547668825,55.99905711296063,65.46422791683867,24.4462560163435,60.0,0.7546772851411461,1.0,0.277915,0.29295024818129345,-0.015035248181291766,0.0,0.0,0.0,0.0,0.0,0.0,0.0,29.97,0.0,f01
-30.04623715972928,16.000434702011173,55.01116434381544,64.69171879440437,-13.392994358619784,64.15841584158416,0.7546772851411461,0.0,0.277915,0.294775210484051,-0.01686021048404944,0.0,0.0,0.0,0.0,0.0,0.0,0.0,29.97,0.0,f01
-29.04979476461926,15.999998787522419,55.99999985528528,65.08371932257077,-24.914341923137798,73.63636363636363,0.7546772851411461,0.0,0.276634,0.2966860335439297,-0.020052033543928482,0.0,0.0,0.0,0.0,0.0,0.0,0.0,29.95,0.0,f01
-28.928248141373317,15.953283043708762,54.9543681988026,64.11968000958146,21.164796108848137,80.0,0.8921426709977492,1.0,0.275354,0.2986811633367445,-0.02332716333674355,0.0,0.0,0.0,0.0,0.0,0.0,0.0,29.95,0.0,f01
-32.205486177615576,17.053480343057004,54.05240065021067,65.18954323968312,-1.9676315452287327,76.03960396039604,0.8921426709977492,0.0,0.276634,0.30075828273565536,-0.024124282735654666,0.0,0.0,0.0,0.0,0.0,0.0,0.0,29.95,0.0,f01
-36.0257225733628,17.000781085924274,50.98739179875106,64.70388989005042,-37.73248689129308,68.57142857142857,0.8921426709977492,0.0,0.275354,0.3029142141220783,-0.027560214122077927,0.0,0.0,0.0,0.0,0.0,0.0,0.0,29.95,0.0,f01
-35.00025290954221,17.000026157183566,52.00028224348389,64.9465006484478,22.32884507336852,62.4390243902439,0.8921426709977492,0.0,0.274073,0.3051448280424951,-0.031071828042494854,0.0,0.0,0.0,0.0,0.0,0.0,0.0,29.93,0.0,f01
-34.89731327959431,17.01256450752633,54.00204759826096,66.50917959245729,31.1860662900336,60.0,0.7631120449594019,1.0,0.272792,0.3074449366700841,-0.03465293667008407,0.0,0.0,0.0,0.0,0.0,0.0,0.0,29.93,0.0,f01
-45.045267660336194,1.594889636744628,66.94199176565306,80.70223090533177,10.48261093985501,64.15841584158416,0.7631120449594019,0.0,0.275354,0.30980817528094945,-0.034454175280949365,0.0,0.0,0.0,0.0,0.0,0.0,0.0,29.93,0.0,f01
-22.072582382062294,-21.11305153455341,39.84899073592378,50.2085839352732,-34.38660884518736,73.63636363636363,0.7631120449594019,0.0,0.259985,0.31222686889471746,-0.052241868894717276,0.0,0.0,0.0,0.0,0.0,0.0,0.0,29.93,0.0,f01
-6.668862105581043,-3.823080892176286,88.06879611404577,88.4036340784062,11.99175178212342,80.0,0.3203577970411964,1.0,0.271511,0.3146918446494454,-0.043180844649445084,0.0,0.0,0.0,0.0,0.0,0.0,0.0,29.95,0.0,f01
-9.78669791648029,-10.067324585578048,61.19821268285022,62.78814948694693,7.017722022077143,80.0,0.3203577970411964,0.0,0.274073,0.317192257346899,-0.04311925734689849,0.0,0.0,0.0,0.0,0.0,0.0,0.0,29.95,0.0,f01
2.4039263810753173,-4.777119125734265,66.19538588372885,66.41105963228455,3.8546414575429826,80.0,0.3203577970411964,0.0,0.275354,0.31971554755425313,-0.04436154755425248,1.0,0.0,0.0,0.0,0.0,0.0,0.0,29.95,0.0,f01
4.7642219565664155,-5.022417178876244,62.8762510207007,63.256188848114036,47.84925890842699,80.0,0.9580644143083872,1.0,0.281757,0.32224748385036733,-0.04049048385036655,0.0,0.0,0.0,0.0,0.0,0.0,0.0,29.95,0.0,f01
4.973040844137669,-3.3097715583188774,61.65079347689842,61.93953551114909,-31.904156747840275,76.03960396039604,0.9580644143083872,0.0,0.285599,0.32477220728194184,-0.03917320728194097,0.0,0.0,0.0,0.0,0.0,0.0,0.0,29.97,0.0,f01
9.620313235806568,-0.24614587400010202,65.91067021995053,66.60951481124447,-36.30165877839703,68.57142857142857,0.9580644143083872,0.0,0.335547,0.3272724006450738,0.00827459935492704,0.0,0.0,0.0,0.0,0.0,0.0,0.0,29.97,0.0,f01
10.094945115021895,-3.0399046953140862,64.00660963615981,64.8690605338758,-63.69694330424514,62.4390243902439,0.9580644143083872,0.0,0.404706,0.32972995249378423,0.07497604750621656,0.0,0.0,0.0,0.0,0.0,0.0,0.0,29.97,0.0,f01
13.974160373469317,-3.225719675561835,63.996322459476986,65.58362382413848,108.85468311487081,60.0,0.930732576824295,1.0,0.443127,0.3321273790009856,0.11099962099901507,0.0,1.0,0.11099962099901507,0.15536116855326754,1.25,0.0,0.0,29.97,0.0,f01
10.982663618512563,-2.932846353821347,66.21639829811633,67.1850570548787,-22.329149912769793,64.15841584158416,0.930732576824295,0.0,0.411109,0.33444949464542595,0.07665950535457465,0.0,0.0,0.0,0.0,0.0,0.0,0.0,29.95,0.0,f01
10.906026476725172,-6.070887167380839,64.00605253656595,65.21174622584293,53.50941002588464,73.63636363636363,0.930732576824295,0.0,0.400864,0.33668431909205,0.06417968090795051,0.0,0.0,0.0,0.0,0.0,0.0,0.0,29.95,0.0,f01
6.938481284940491,-5.055704195897606,64.93640920186911,65.50144965945775,90.02230257342188,80.0,0.8790791317506349,1.0,0.391899,0.33882294310293826,0.05307605689706228,0.0,0.0,0.0,0.0,0.0,0.0,0.0,29.95,0.0,f01
9.90635477043347,-5.858096632799726,62.98741344701351,64.03020704122335,33.906898140699404,76.08979069381563,0.8790791317506349,0.0,0.382934,0.34085897654857356,0.042075023451427135,0.0,0.0,0.0,0.0,0.0,0.0,0.0,29.95,0.0,f01
7.973420881575941,-4.861291846726581,67.14761078703754,67.79387312568358,-151.86983034313155,67.74867562947172,0.8790791317506349,0.0,0.372688,0.34278805497297715,0.029899945027023655,0.0,0.0,0.0,0.0,0.0,1.0,1.25,29.95,0.0,f01
1.186979949172989,-15.170217029302401,63.66581065775854,65.45899367409673,-36.881267958272836,59.2043379627068,0.8790791317506349,0.0,0.370126,0.3446074202196242,0.025518579780376586,0.0,0.0,0.0,0.0,0.0,0.0,0.0,29.95,0.0,f01
-30.690896811990154,-53.87341803192319,38.55317486478089,73.01111976761449,-5.912784918121203,52.43984121020045,0.8790791317506349,0.0,0.344512,0.346315508150319,-0.0018035081503180936,0.0,0.0,0.0,0.0,0.0,0.0,0.0,29.95,0.0,f01
-22.462663450770908,-43.21957125501988,36.58188696275306,60.91581931260534,-0.03160379862775699,48.0,0.7825913594830817,1.0,0.329144,0.3479114428626722,-0.018767442862671187,0.0,0.0,0.0,0.0,0.0,0.0,0.0,29.95,0.0,f01
-4.825434988099661,-17.13254829194372,58.32549012755577,60.98091367321226,-8.917658228169776,44.79305136719843,0.7825913594830817,0.0,0.331705,0.3493944161186343,-0.01768941611863303,0.0,0.0,0.0,0.0,0.0,0.0,0.0,29.91,0.0,f01
-17.96011439394661,-21.351436889902676,64.7535823642313,70.50869446606164,-11.573501690485607,41.813184465742886,0.7825913594830817,0.0,0.359881,0.3507632480675485,0.009117751932453004,0.0,0.0,0.0,0.0,0.0,0.0,0.0,29.91,0.0,f01
-16.682192830392886,-15.619097928259295,52.92099759387441,57.644459959772604,-53.71230941044754,39.236495004254074,0.7825913594830817,0.0,0.357319,0.3520164222860922,0.005302577713909467,0.0,0.0,0.0,0.0,0.0,0.0,0.0,29.91,0.0,f01
-55.88245376764102,-35.087829962292695,14.719646436613989,67.60674849284074,-38.81365526951668,37.15161816870458,0.7825913594830817,0.0,0.318898,0.3531523082920711,-0.034254308292069206,0.0,0.0,0.0,0.0,0.0,0.0,0.0,29.91,0.0,f01
-55.54343648810477,-26.52609389079067,-23.314679658877946,65.82006746887508,-22.55502807148073,35.60395319226338,0.7825913594830817,0.0,0.306091,0.3541689550877487,-0.04807795508774654,0.0,0.0,0.0,0.0,0.0,0.0,0.0,29.93,0.0,f01
-64.91382315283929,1.0892317639617042,27.059559521587566,70.33641036942429,30.99646296506499,34.62998274052203,0.7825913594830817,0.0,0.299687,0.3550634039175942,-0.05537640391759178,0.0,0.0,0.0,0.0,0.0,0.0,0.0,29.93,0.0,f01
17.51375753292367,-40.24339967539541,50.31336999322574,66.76599524032338,129.10496231175756,34.285714285714285,0.9916336774700689,1.0,0.184423,0.35583075837960065,-0.17140775837959804,0.0,0.0,0.0,0.0,0.0,0.0,0.0,29.93,0.0,f01
60.88730702325987,-2.9927586493415257,68.80088595408688,91.92269942155305,-9.429934411556307,34.652406417112296,0.9916336774700689,0.0,0.167774,0.35646270681967757,-0.18868870681967465,0.0,0.0,0.0,0.0,0.0,0.0,0.0,29.93,0.0,f01
-15.733246384139552,-29.18768389220116,70.85004231620319,78.22521606862381,-9.737456060906668,35.6043956043956,0.9916336774700689,0.0,0.284319,0.3569458726246878,-0.07262687262468458,0.0,0.0,0.0,0.0,0.0,0.0,0.0,29.93,0.0,f01
7.164290868598874,-18.051302540228594,75.28729329510173,77.75186890841546,-20.86914661766877,36.92307692307692,0.9916336774700689,0.0,0.32274,0.35726164083902845,-0.0345216408390249,0.0,0.0,0.0,0.0,0.0,0.0,0.0,29.93,0.0,f01
-49.37380001012212,-35.289486471492914,44.98630015134178,75.54394207458219,-66.87559456185168,38.34319526627219,0.9916336774700689,0.0,0.312494,0.3573877149259935,-0.04489371492598973,0.0,0.0,0.0,0.0,0.0,0.0,0.0,29.93,0.0,f01
-53.984135385973126,-25.857498456146388,36.7702108036702,70.2491672714135,-11.822854415927399,39.512195121951216,0.9916336774700689,0.0,0.303529,0.35729960672724276,-0.05377060672723886,0.0,0.0,0.0,0.0,0.0,0.0,0.0,29.93,0.0,f01
-29.519757516860007,-31.516798868635405,48.39927606667781,64.8630450916292,42.64568511754995,40.0,0.9551743070725399,1.0,0.299687,0.3569710349783533,-0.05728403497834935,1.0,0.0,0.0,0.0,0.0,0.0,0.0,29.91,0.0,f01
-28.74376213784949,-33.91228526356968,44.129996280357965,62.639472581906396,6.968438001575305,40.0,0.9551743070725399,0.0,0.300968,0.3563737613077811,-0.05540576130777723,0.0,0.0,0.0,0.0,0.0,0.0,0.0,29.91,0.0,f01
-44.955260817073054,-34.58090987457824,40.11382708780296,69.46894217213129,-11.794598233479899,40.0,0.9551743070725399,0.0,0.772271,0.3554785738426038,0.4167924261574002,0.0,0.0,0.0,0.0,0.0,0.0,0.0,29.91,0.0,f01
-53.27862182216219,-31.99661984344773,20.097700142223786,65.31701750448983,-23.00376747715394,40.0,0.9551743070725399,0.0,0.95696,0.3542602035304972,0.6026997964695068,0.0,1.0,0.6026997964695068,0.6599838314478561,0.75,0.0,0.0,29.91,0.0,f01
-42.61033105835478,-39.03375245141648,24.59113789995398,62.8012595937025,-1.4543691941359331,40.0,0.9551743070725399,0.0,0.584272,0.352704972975347,0.23156702702465667,0.0,0.0,0.0,0.0,0.0,1.0,0.25,29.93,0.0,f01
-52.09826942845435,-28.712422164246757,23.98093574443672,64.13827362157912,-29.43417760612024,40.0,0.9551743070725399,0.0,0.476692,0.3508141705833632,0.1258778294166403,0.0,0.0,0.0,0.0,0.0,0.0,0.0,29.93,0.0,f01
-51.381717707577295,-32.57776651109597,20.502251200677172,64.20073278186408,34.947058322158405,40.0,0.7811132177082467,1.0,0.40113,0.34860045913286825,0.052529540867135203,0.0,0.0,0.0,0.0,0.0,0.0,0.0,29.93,0.0,f01
-54.94430279556934,-29.74898875369652,6.191772372275412,62.7870749969199,0.8142579198210209,40.46055931428826,0.7811132177082467,0.0,0.41778,0.3460826164243191,0.07169738357568432,0.0,0.0,0.0,0.0,0.0,0.0,0.0,29.93,0.0,f01
-56.10999479002034,-30.09118923830343,1.9245905198139972,63.69862819386659,20.031130757905085,41.70208855088114,0.7811132177082467,0.0,0.389604,0.34328271688715106,0.04632128311285234,0.0,0.0,0.0,0.0,0.0,0.0,0.0,29.93,0.0,f01
-55.573517408873194,-29.852163789450902,6.45094950585011,63.41279263392808,-12.705883398914539,43.53614219407764,0.7811132177082467,0.0,0.36527,0.3402251620219352,0.02504483797806828,0.0,0.0,0.0,0.0,0.0,0.0,0.0,29.93,0.0,f01
-58.9821005475898,-29.02069445904446,4.254591470872492,65.87253176002291,-21.313887637850424,45.742080193553264,0.7811132177082467,0.0,0.343498,0.3369360786277341,0.006561921372269422,0.0,0.0,0.0,0.0,0.0,0.0,0.0,29.93,0.0,f01
-55.19085871789026,-29.825263132087624,12.156198111027344,63.901098264669386,17.581018361032395,48.0,0.9054339299025841,1.0,0.32813,0.33344261389300067,-0.005312613892997212,0.0,0.0,0.0,0.0,0.0,0.0,0.0,29.93,0.0,f01
-55.32892458656855,-55.34569228428377,-10.839527557312067,79.00589160308581,-0.7031986401473401,50.86649515572828,0.9054339299025841,0.0,0.315322,0.32977227287197164,-0.014450272871968206,0.0,0.0,0.0,0.0,0.0,0.0,0.0,29.89,0.0,f01
-20.30419739623194,-41.83432426418281,22.866571164071637,51.819409446147674,8.113097843303745,54.68926553672316,0.9054339299025841,0.0,0.303796,0.3259524163475479,-0.022156416347544478,0.0,0.0,0.0,0.0,0.0,0.0,0.0,29.89,0.0,f01
-9.644516187972483,-46.06448032271689,28.739616641525174,55.14452470194902,-25.211094092477694,58.33155483020527,0.9054339299025841,0.0,0.299954,0.32200989972543703,-0.022055899725433675,0.0,0.0,0.0,0.0,0.0,0.0,0.0,29.89,0.0,f01
-0.45333309372379843,-84.37311756453873,8.45783037024782,84.79718965287249,24.6078198057733,60.0,0.5878909181161793,1.0,0.289708,0.3179708336166785,-0.028262833616675198,0.0,0.0,0.0,0.0,0.0,0.0,0.0,29.89,0.0,f01
-11.102728295283228,-35.418461424712866,37.68190937769994,52.89295113379425,4.526921584055254,59.01564200996963,0.5878909181161793,0.0,0.266655,0.31386038573621783,-0.04720538573621466,0.0,0.0,0.0,0.0,0.0,0.0,0.0,29.89,0.0,f01
-4.338084234985359,-47.25894439770167,40.41432997317569,62.334138861426595,-38.23712497431605,56.60169988276671,0.5878909181161793,0.0,0.260252,0.3097024888341422,-0.049450488834139154,0.0,0.0,0.0,0.0,0.0,0.0,0.0,29.89,0.0,f01
21.260688259921157,-36.21187193154167,47.84103248715868,63.655957486391614,15.76151846386575,53.56864240764177,0.5878909181161793,0.0,0.253848,0.30551948422992625,-0.05167148422992323,0.0,0.0,0.0,0.0,0.0,0.0,0.0,29.89,0.0,f01
0.3983705394676522,-50.0943765106819,24.85338465174482,55.92223158752035,54.72271390681188,50.559591596308664,0.5878909181161793,0.0,0.246164,0.3013318648528055,-0.05516786485280243,0.0,0.0,0.0,0.0,0.0,0.0,0.0,29.89,0.0,f01
-31.569034984333687,-45.99356772284659,39.47707838668276,68.34070499831309,65.68981555654142,48.0,0.8193412279752427,1.0,0.237199,0.29715813219756976,-0.05995913219756665,0.0,0.0,0.0,0.0,0.0,0.0,0.0,29.91,0.0,f01
-26.39094933241691,-19.60602705517369,49.33039462449962,59.28209120268329,-48.87828168083165,45.437523779922515,0.8193412279752427,0.0,0.248725,0.29301471148085356,-0.044289711480850286,0.0,0.0,0.0,0.0,0.0,0.0,0.0,29.91,0.0,f01
-39.61489901807527,0.13420409946645592,66.60962676252906,77.49968136964205,-0.2867828548833478,42.59649440098868,0.8193412279752427,0.0,0.248725,0.2889160036446565,-0.040191003644653084,0.0,0.0,0.0,0.0,0.0,0.0,0.0,29.91,0.0,f01
-23.201027624057247,10.957609609370744,60.053142785300594,65.30495271842207,-55.84000017453729,39.89742093648097,0.8193412279752427,0.0,0.255129,0.28487461936046343,-0.029745619360459757,0.0,0.0,0.0,0.0,0.0,0.0,0.0,29.91,0.0,f01
-25.98288693633958,13.017456794166845,57.97365307292769,64.84989626479586,-12.655599286445343,37.59387428449816,0.8193412279752427,0.0,0.25641,0.2809016876676756,-0.024491687667671746,0.0,0.0,0.0,0.0,0.0,0.0,0.0,29.93,0.0,f01
-24.97588853776611,13.06491315496286,57.98256604045002,64.47065168456719,-21.427822550548214,35.828357735944735,0.8193412279752427,0.0,0.261532,0.2770071533037341,-0.01547515330373023,0.0,0.0,0.0,0.0,0.0,0.0,0.0,29.93,0.0,f01
-25.08958481436036,12.911314758474505,58.99240015021564,65.39336809212801,-69.35011552611718,34.69338821671297,0.8193412279752427,0.0,0.25641,0.2732000439750982,-0.016790043975094184,0.0,0.0,0.0,0.0,0.0,0.0,0.0,29.93,0.0,f01
-24.99015803791309,14.083548622079517,58.957809853423434,65.56582709966209,35.43482121957993,34.285714285714285,0.7645144415383891,1.0,0.255129,0.26948866750952694,-0.01435966750952304,0.0,0.0,0.0,0.0,0.0,0.0,0.0,29.93,0.0,f01
-25.092600682573842,12.02969453039653,59.028139783682185,65.25851243961726,19.26300673528364,40.24844720496894,0.7645144415383891,0.0,0.251287,0.2658807141321863,-0.014593714132182474,0.0,0.0,0.0,0.0,0.0,0.0,0.0,29.91,0.0,f01
-25.055660876474775,12.120866208924276,56.11113223860871,62.63513950419672,-45.725625275117494,59.449541284403665,0.7645144415383891,0.0,0.251287,0.26238330627243506,-0.01109630627243137,0.0,0.0,0.0,0.0,0.0,0.0,0.0,29.91,0.0,f01
-26.22404970747873,15.953828532121662,56.01222187661235,63.87170286948287,29.56606711396434,80.0,0.4114110115219689,1.0,0.248725,0.25900305053863937,-0.010278050538635852,0.0,0.0,0.0,0.0,0.0,0.0,0.0,29.91,0.0,f01
-41.96068429003574,12.79590185428332,41.21836592332698,60.194582976724625,8.276272032933388,80.0,0.4114110115219689,0.0,0.244883,0.255746097691427,-0.010863097691423674,0.0,0.0,0.0,0.0,0.0,0.0,0.0,29.91,0.0,f01
-57.12516293676642,9.928384921855157,26.903781175165914,63.919249911351784,-37.91963765296102,80.0,0.4114110115219689,0.0,0.241041,0.25261817984509327,-0.011577179845090171,0.0,0.0,0.0,0.0,0.0,0.0,0.0,29.91,0.0,f01
-51.03864447506241,12.837542820097628,34.874296693244084,63.13447794476544,30.0387999340359,80.0,0.5780988920031813,1.0,0.237199,0.24962460940807338,-0.012425609408070484,0.0,0.0,0.0,0.0,0.0,0.0,0.0,29.91,0.0,f01
-49.615854641355256,13.153485061705297,39.35221958274273,64.67877849147276,4.330299961599713,80.0,0.5780988920031813,0.0,0.230795,0.2467702486995926,-0.01597524869958995,0.0,0.0,0.0,0.0,0.0,0.0,0.0,29.91,0.0,f01
-41.16339401325002,16.860195200933447,47.80415130432816,65.29876010178714,-35.81122904761092,80.0,0.5780988920031813,0.0,0.233357,0.24405946834705258,-0.01070246834705004,0.0,0.0,0.0,0.0,0.0,0.0,0.0,29.91,0.0,f01
-42.99494411472812,18.008576552758306,43.07410290637165,63.46851495090968,88.20728640793993,80.0,0.8531144783413032,1.0,0.232076,0.24149614006018433,-0.009420140060181933,0.0,0.0,0.0,0.0,0.0,0.0,0.0,29.91,0.0,f01
-45.97287355247786,16.00106165586584,45.89382230777016,66.90128550935415,14.316740335635412,74.48275862068965,0.8531144783413032,0.0,0.228234,0.23908368498182034,-0.01084968498181815,0.0,0.0,0.0,0.0,0.0,0.0,0.0,29.91,0.0,f01
-44.953203516723214,16.000390512079566,44.09558302751945,64.97094308605843,-92.50913875793553,63.529411764705884,0.8531144783413032,0.0,0.224392,0.23682511642510337,-0.012433116425101334,0.0,0.0,0.0,0.0,0.0,0.0,0.0,29.91,0.0,f01
-44.03541007548943,15.871594094369833,43.84699773689556,64.1372282699547,-2.916852556456094,53.333333333333336,0.8531144783413032,0.0,0.224392,0.2347230341379192,-0.010331034137917318,0.0,0.0,0.0,0.0,0.0,0.0,0.0,29.91,0.0,f01
-48.91731823807098,18.07991916212302,35.77081561123638,63.24032534709706,-3.727571267165188,45.95744680851064,0.8531144783413032,0.0,0.224392,0.23277961576040118,-0.008387615760399463,0.0,0.0,0.0,0.0,0.0,0.0,0.0,29.89,0.0,f01
-48.068404317177944,17.958535782473,37.155109079267234,63.35284233357096,-48.80214599656491,41.53846153846153,0.8531144783413032,0.0,0.219269,0.23099663894646585,-0.01172763894646434,0.0,0.0,0.0,0.0,0.0,0.0,0.0,29.89,0.0,f01
-45.97997132691311,17.02597323999861,39.086496043311456,62.70403257316632,26.594176970115182,40.0,0.6507517145516527,1.0,0.217988,0.2293754943882677,-0.01138749438826642,0.0,0.0,0.0,0.0,0.0,0.0,0.0,29.89,0.0,f01
-44.84806325113945,16.038550937454186,44.18497064788355,64.96841944133972,15.041593711226769,45.95744680851064,0.6507517145516527,0.0,0.217988,0.22791716831156777,-0.009929168311566733,0.0,0.0,0.0,0.0,0.0,0.0,0.0,29.89,0.0,f01
-51.227465041423336,16.93079803284557,37.23554745556015,65.55448947947447,-18.714957996662747,63.529411764705884,0.6507517145516527,0.0,0.216707,0.2266222340669846,-0.009915234066983775,0.0,0.0,0.0,0.0,0.0,0.0,0.0,29.89,0.0,f01
-46.91670289751616,16.89655371368755,40.922665982176746,64.50841130629506,62.48047462532603,80.0,0.794420048518876,1.0,0.214146,0.2254908649903945,-0.011344864990393954,0.0,0.0,0.0,0.0,0.0,0.0,0.0,29.89,0.0,f01
-47.04663901843417,17.05096621646915,42.006552408040676,65.33507585558841,14.41060088661294,76.03960396039604,0.794420048518876,0.0,0.215427,0.2245228410458089,-0.0090958410458086,0.0,0.0,0.0,0.0,0.0,0.0,0.0,29.89,0.0,f01
-45.89526559935851,16.022479148954343,41.99944803444978,64.24211140453578,-49.00278915351942,68.57142857142857,0.794420048518876,0.0,0.212865,0.22371754924399265,-0.010852549243992558,0.0,0.0,0.0,0.0,0.0,0.0,0.0,29.89,0.0,f01
-45.97087829018412,16.999993108282634,41.90161522335572,64.48307355251248,-14.8375042489342,62.4390243902439,0.794420048518876,0.0,0.211585,0.22307398394341138,-0.011488983943411517,0.0,0.0,0.0,0.0,0.0,0.0,0.0,29.87,0.0,f01
-46.04374743150824,16.99999999981141,40.928504039861444,63.907504414357035,8.098681243473774,60.0,0.9169128458733409,1.0,0.211585,0.22259073484854736,-0.011005734848547694,0.0,0.0,0.0,0.0,0.0,0.0,0.0,29.87,0.0,f01
-46.93907578859474,16.999999813849563,41.16165467066617,64.70362157395442,-139.74526405481214,64.15841584158416,0.9169128458733409,0.0,0.212865,0.22226597495486625,-0.00940097495486682,0.0,0.0,0.0,0.0,0.0,0.0,0.0,29.87,0.0,f01
-45.8340255114134,16.99296613605844,43.083127693856305,65.15884195231872,-147.58141617887566,73.63636363636363,0.9169128458733409,0.0,0.210304,0.22209746680097153,-0.011793466800972336,0.0,0.0,0.0,0.0,0.0,0.0,0.0,29.87,0.0,f01
-45.87399383248797,16.901212531482283,41.072220728819076,63.85140257484023,227.4211935156023,80.0,0.9702788517635638,1.0,0.209023,0.2220825626808336,-0.013059562680834635,0.0,0.0,0.0,0.0,0.0,0.0,0.0,29.89,0.0,f01
-47.83593221600039,17.012331098160065,40.896186656931725,65.19351120660559,23.38520118079803,74.49773755656109,0.9702788517635638,0.0,0.207742,0.22221817143921746,-0.014476171439218734,0.0,0.0,0.0,0.0,0.0,0.0,0.0,29.89,0.0,f01
-46.780762740611316,17.017686529506502,41.10189012449846,64.55545514684455,62.05069942429308,63.27440430438124,0.9702788517635638,0.0,0.207742,0.22250070721051776,-0.014758707210519247,0.0,0.0,0.0,0.0,0.0,0.0,0.0,29.89,0.0,f01
-47.16019716990315,16.923989703997464,40.852963235871066,64.64882233851276,30.530956811894708,52.46653919694073,0.9702788517635638,0.0,0.2039,0.2229260385311397,-0.019026038531141366,0.0,0.0,0.0,0.0,0.0,0.0,0.0,29.89,0.0,f01
-46.970595694446274,17.07430306310492,39.84667795821817,63.9181228548511,-34.8912350580229,44.234282643739924,0.9702788517635638,0.0,0.20262,0.22348942270926425,-0.020869422709266016,0.0,0.0,0.0,0.0,0.0,0.0,0.0,29.91,0.0,f01
-45.23005938041799,17.00176068654732,41.917694954194424,63.96804896408566,10.25661054724925,38.66604039455143,0.9702788517635638,0.0,0.201339,0.2241854164575095,-0.02284641645751134,0.0,0.0,0.0,0.0,0.0,0.0,0.0,29.91,0.0,f01
-47.75340938213026,16.999929716647777,40.97380541013501,65.1785121629506,-17.536896788608804,35.406451612903226,0.9702788517635638,0.0,0.201339,0.2250077873805302,-0.023668787380532113,0.0,0.0,0.0,0.0,0.0,0.0,0.0,29.91,0.0,f01
-47.993143961205085,16.999950216713636,39.02383490416882,64.14982357948868,52.81538281667848,34.285714285714285,0.8085311009119156,1.0,0.200058,0.2259494448309386,-0.02589144483094054,0.0,0.0,0.0,0.0,0.0,0.0,0.0,29.91,0.0,f01
-46.05705871326069,17.957467081416024,38.871269495098076,62.88639656918994,-34.21229621456978,36.74641148325359,0.8085311009119156,0.0,0.197497,0.22700237511387586,-0.029505375113877817,0.0,0.0,0.0,0.0,0.0,0.0,0.0,29.89,0.0,f01
-51.23778472816525,17.100777012821514,38.078668169386276,66.08881999132895,-11.053788004497896,43.63636363636363,0.8085311009119156,0.0,0.200058,0.22815756605797044,-0.028099566057972376,0.0,0.0,0.0,0.0,0.0,0.0,0.0,29.89,0.0,f01
-49.248473070002596,19.439655335030675,46.99275603356238,70.79287689380529,-33.821436792033765,53.70629370629371,0.8085311009119156,0.0,0.197497,0.2294049365206783,-0.03190793652068019,0.0,0.0,0.0,0.0,0.0,0.0,0.0,29.89,0.0,f01
38.0,13.000000000000004,28.00000000000001,48.95916665957459,-1.125859510036237e-23,20.693836308521387,0.7205146348755603,0.0,0.0,-0.012758513441635975,0.012758513441632813,0.0,0.0,0.0,0.0,0.0,0.0,0.0,32.41,0.0,f02
34.9930241609254,-6.001943912013453,51.99530924221554,62.96068022062412,-0.04998854814403417,20.693836308521387,0.7205146348755603,0.0,0.843838,0.076114279712763,0.767723720287234,0.0,0.0,0.0,0.0,0.0,0.0,0.0,32.41,0.0,f02
57.00166748631495,29.003725000679985,20.99802439258017,67.3151037177161,6.200595448251912,20.693836308521387,0.7205146348755603,0.0,1.188555,0.16446157265677694,1.0240934273432207,0.0,0.0,0.0,0.0,0.0,0.0,0.0,32.41,0.0,f02
-37.97116562629231,-16.003629053124317,73.00755658945587,83.833339913497,22.904534752246335,20.693836308521387,0.7205146348755603,0.0,1.609903,0.25183842403584966,1.3580645759641479,0.0,1.0,1.3580645759641479,0.0,0.0,0.0,0.0,32.41,0.0,f02
34.0327455199675,-8.972399925495832,50.99546264635325,61.961834531956164,93.78063336626207,20.693836308521387,0.7205146348755603,0.0,1.567746,0.3378377600398177,1.2299082399601797,0.0,0.0,0.0,0.0,0.0,0.0,0.0,32.41,0.0,f02
47.04676026199278,-6.989215212446087,36.96343707169239,60.23738424424051,208.458245660132,20.693836308521387,0.7205146348755603,0.0,1.593356,0.422098031125956,1.1712579688740412,0.0,0.0,0.0,0.0,0.0,0.0,0.0,32.41,0.0,f02
56.066447642023824,3.9815507854982055,3.0202208247276614,56.288729170975415,-537.2900770681476,20.693836308521387,0.7205146348755603,0.0,1.60616,0.5043044495664271,1.1018555504335703,0.0,0.0,0.0,0.0,0.0,0.0,0.0,32.41,0.0,f02
66.95939304815892,-38.973284848508946,42.09089862120063,88.17097592746175,71.56532659144965,20.693836308521387,0.7205146348755603,0.0,1.60616,0.584186873187188,1.0219731268128096,0.0,0.0,0.0,0.0,0.0,0.0,0.0,32.41,0.0,f02
55.0162771508435,-10.01229562039059,31.048491292980156,63.961282247143714,141.26440407921658,20.693836308521387,0.7205146348755603,0.0,1.615124,0.6615170241890986,0.953606975810899,0.0,0.0,0.0,0.0,0.0,0.0,0.0,32.37,0.0,f02
56.00002609954178,-0.00950885117541606,26.029539901824666,61.75386596050723,37.56730842031804,20.693836308521387,0.7205146348755603,0.0,1.642014,0.7361057802943792,0.9059082197056179,0.0,0.0,0.0,0.0,0.0,0.0,0.0,32.37,0.0,f02
62.02907379930103,2.992051085459618,22.98813117028061,66.21942721587949,2.6165602195840623,20.693836308521387,0.7205146348755603,0.0,1.622807,0.8078005990863664,0.8150064009136302,0.0,0.0,0.0,0.0,0.0,0.0,0.0,32.37,0.0,f02
59.0277748739271,-7.003351606544977,11.009742238141618,60.452787896359546,0.12002463147775466,20.693836308521387,0.7205146348755603,0.0,1.576709,0.8764828539352408,0.7002261460647551,0.0,0.0,0.0,0.0,0.0,0.0,0.0,32.37,0.0,f02
54.95040396543393,5.976678779489816,2.913095363703566,55.351185260982554,0.8305343443253397,20.693836308521387,0.7205146348755603,0.0,1.543417,0.9420645869354223,0.6013524130645735,0.0,0.0,0.0,0.0,0.0,0.0,0.0,32.37,0.0,f02
57.894186666732196,-25.014576301837568,21.921723444137896,66.76846438345089,2.452193794972219,20.693836308521387,0.7205146348755603,0.0,1.608721,1.004484951970385,0.6042360480296108,0.0,0.0,0.0,0.0,0.0,0.0,0.0,32.37,0.0,f02
50.97816280404696,-36.02875694610486,4.928687256462688,62.618977698693186,9.351152895104228,20.693836308521387,0.7205146348755603,0.0,1.625368,1.0637074162843467,0.5616605837156486,0.0,0.0,0.0,0.0,0.0,0.0,0.0,32.37,0.0,f02
30.994454838382374,-44.05414667797469,29.061407734476997,61.204489130802756,1.182007369790663,20.693836308521387,0.7205146348755603,0.0,1.636892,1.1197180738514896,0.5171739261485059,0.0,0.0,0.0,0.0,0.0,0.0,0.0,32.37,0.0,f02
41.03103956247307,-48.9913554560927,26.027568562155402,69.00096696612414,-65.94724102243698,20.693836308521387,0.7205146348755603,0.0,1.603599,1.1725241992523217,0.4310748007476739,0.0,0.0,0.0,0.0,0.0,0.0,0.0,32.37,0.0,f02
56.9082724454035,-50.92440000723771,-12.134595876112815,77.32460414314447,13.05379976973806,20.693836308521387,0.7205146348755603,0.0,1.517807,1.2221520691992476,0.29565493080074834,0.0,0.0,0.0,0.0,0.0,0.0,0.0,32.37,0.0,f02
63.03233608385234,-24.97124513839463,-18.986022351010483,70.4067292285516,0.9534607517150677,20.693836308521387,0.7205146348755603,0.0,1.545978,1.2686438714437869,0.27733412855620987,0.0,0.0,0.0,0.0,0.0,0.0,0.0,32.37,0.0,f02
46.00843543550223,-2.9959392765154615,-10.981159919158415,47.39554469084068,-16.39662293974763,20.693836308521387,0.7205146348755603,0.0,1.570307,1.3120546216665072,0.25825237833348996,0.0,0.0,0.0,0.0,0.0,0.0,0.0,32.37,0.0,f02
74.82983479890555,37.053521361384256,12.989395424031827,84.5055738681888,97.5626985047097,20.693836308521387,0.7205146348755603,1.0,1.575429,1.3524501395447117,0.22297886045528642,0.0,0.0,0.0,0.0,0.0,0.0,0.0,32.37,0.0,f02
39.09806421702875,11.913402902812381,32.004094455019334,51.91194328985809,95.65705853415808,22.690480599856148,0.7205146348755603,0.0,1.575429,1.3899058530737598,0.18552314692623895,0.0,0.0,0.0,0.0,0.0,0.0,0.0,32.37,0.0,f02
-17.824654334363217,51.962451265266075,57.299123263202276,79.37886475861401,-174.8328788564497,24.941586946153002,0.7205146348755603,0.0,1.571587,1.4245056200221107,0.14708137997788884,0.0,0.0,0.0,0.0,0.0,0.0,0.0,32.37,0.0,f02
30.900074798003526,47.00350954964071,38.948405565848745,68.41873156254226,13.54919743558863,27.37555338474009,0.7205146348755603,0.0,1.512685,1.4563402280078828,0.056344771992117626,0.0,0.0,0.0,0.0,0.0,0.0,0.0,32.37,0.0,f02
22.0112566990856,42.99807100303124,46.96337109734527,67.37126803231271,-42.525420812183434,29.836939670368096,0.7205146348755603,0.0,1.4986,1.4855054357675141,0.013094564232486783,0.0,0.0,0.0,0.0,0.0,0.0,0.0,32.37,0.0,f02
-43.08652547982218,28.95438004647848,6.0036694990178034,52.257524331455976,-43.66021630578745,32.05978105432263,0.7205146348755603,0.0,1.488356,1.5120997200275674,-0.023743720027565418,0.0,0.0,0.0,0.0,0.0,0.0,0.0,32.37,0.0,f02
36.54837252844837,17.12254734311907,32.24275114583197,51.658108399820854,143.59856795264707,33.67457587035063,0.7205146348755603,0.0,1.489636,1.536222294988649,-0.046586294988646415,0.0,0.0,0.0,0.0,0.0,0.0,0.0,32.37,0.0,f02
89.7502951387083,-11.985027967932842,72.83093357704415,116.2028453118993,164.53826202049206,34.285714285714285,0.3719797331044811,1.0,1.549819,1.5579718309508483,-0.00815283095084518,0.0,0.0,0.0,0.0,0.0,0.0,0.0,32.37,0.0,f02
40.98865743590365,-13.889858362569482,58.937938239235514,73.12098718987622,-110.12998680420972,33.793103448275865,0.3719797331044811,0.0,1.531892,1.577445950713532,-0.045553950713528746,0.0,0.0,0.0,0.0,0.0,0.0,0.0,32.34,0.0,f02
41.01544401679034,-10.023745124911436,49.0629145343736,64.72952724090372,4.05867740818608,32.48618784530387,0.3719797331044811,0.0,1.52677,1.5947410636451398,-0.06797106364513616,0.0,0.0,0.0,0.0,0.0,0.0,0.0,32.34,0.0,f02
35.98103614794014,-9.999524201880645,51.99760559924472,64.0185632031677,92.50332168226892,30.664928292046934,0.3719797331044811,0.0,1.543417,1.609951932569496,-0.06653493256949183,0.0,0.0,0.0,0.0,0.0,0.0,0.0,32.34,0.0,f02
52.898577490301285,-29.812058552200746,63.7808843890328,88.06258881650268,-285.0902146560207,28.61313868613139,0.3719797331044811,0.0,1.562624,1.6231711162722675,-0.060547116272262835,0.0,0.0,0.0,0.0,0.0,0.0,0.0,32.34,0.0,f02
42.019176006212845,28.04025005729166,23.928311989054908,55.89660893258273,93.06345673690113,26.54627539503386,0.3719797331044811,0.0,1.644575,1.6344889126216118,0.01008608737839356,0.0,0.0,0.0,0.0,0.0,0.0,0.0,32.37,0.0,f02
49.117651037104,18.860445081595337,32.0968966651117,61.631735393459884,43.34095729830209,24.602510460251043,0.3719797331044811,0.0,1.715001,1.6439942229184192,0.07100677708158681,0.0,0.0,0.0,0.0,0.0,0.0,0.0,32.37,0.0,f02
38.162212671742004,22.98187235283644,51.180429406584224,67.85246706706901,16.72630532428251,22.857142857142858,0.3719797331044811,0.0,1.698355,1.651776144824593,0.046578855175413825,0.0,0.0,0.0,0.0,0.0,0.0,0.0,32.37,0.0,f02
34.98090267966232,20.995948088021873,50.9889902956593,65.30214789553061,-18.073905969518464,21.343012704174228,0.3719797331044811,0.0,1.659941,1.6579251919357634,0.0020158080642434517,0.0,0.0,0.0,0.0,0.0,0.0,0.0,32.37,0.0,f02
36.020497118205995,19.00001289828523,50.00033059256917,64.48650837302249,7.363207197146905,20.068259385665527,0.3719797331044811,0.0,1.659941,1.6625332577690841,-0.002592257769077344,0.0,0.0,0.0,0.0,0.0,0.0,0.0,32.39,0.0,f02
37.01787225179105,19.000000475516206,48.999931633195494,64.2830940775051,-115.71297052653152,19.02912621359223,0.3719797331044811,0.0,1.649697,1.6656928150468433,-0.015995815046836337,0.0,0.0,0.0,0.0,0.0,0.0,0.0,32.39,0.0,f02
37.99997339364791,19.018393607224684,49.00393898796635,64.86203288252383,-30.737351400023627,18.218435321456234,0.3719797331044811,0.0,1.639453,1.6674962103376851,-0.028043210337677482,0.0,0.0,0.0,0.0,0.0,0.0,0.0,32.39,0.0,f02
39.01801803788722,19.995318598477994,47.999994829084464,65.00936856370524,26.568446691782377,17.631184407796102,0.3719797331044811,0.0,1.638173,1.6680352031149472,-0.029862203114938757,0.0,0.0,0.0,0.0,0.0,0.0,0.0,32.39,0.0,f02
37.995841222020545,19.99999987255022,47.99999999986296,64.40251505226988,1.6022013685921852,17.26872246696035,0.3719797331044811,0.0,1.625368,1.6674006084113142,-0.04203260841130513,0.0,0.0,0.0,0.0,0.0,0.0,0.0,32.39,0.0,f02
39.00000542465557,19.999999999996536,48.00000014357897,65.00000336081996,38.13109243415741,17.142857142857142,0.23426737739541684,1.0,1.612563,1.66568198160089,-0.053118981600880355,0.0,0.0,0.0,0.0,0.0,0.0,0.0,32.39,0.0,f02
39.00000001071699,20.000000000000004,48.00554024655036,65.00409137276739,-11.622922589619119,17.464468447981808,0.23426737739541684,0.0,1.602319,1.6629672747145792,-0.06064827471456863,0.0,0.0,0.0,0.0,0.0,0.0,0.0,32.39,0.0,f02
39.000407609667015,20.000000000000007,47.999973133440264,65.00022472677429,-0.1758689440903288,18.373205741626794,0.23426737739541684,0.0,1.588234,1.6593424608806997,-0.07110846088068895,0.0,0.0,0.0,0.0,0.0,0.0,0.0,32.39,0.0,f02
38.99961764499737,20.000000000213458,47.99999999927375,64.99977058724753,-8.288572497080228,19.83214977404777,0.23426737739541684,0.0,1.57799,1.6548911784760123,-0.07690117847600142,0.0,0.0,0.0,0.0,0.0,0.0,0.0,32.41,0.0,f02
39.00582925464721,20.00000822318949,48.000000133671364,65.00350034884883,-21.84149253633127,21.818181818181817,0.23426737739541684,0.0,1.562624,1.6496944039218469,-0.08707040392183607,0.0,0.0,0.0,0.0,0.0,0.0,0.0,32.41,0.0,f02
39.02186631685225,19.979340573725384,48.00514697459483,65.01057019180534,7.246703122583944,24.246250986582478,0.23426737739541684,0.0,1.554941,1.6438301499377808,-0.08888914993776992,0.0,0.0,0.0,0.0,0.0,0.0,0.0,32.41,0.0,f02
41.01253605734479,21.02084361922964,45.974976091523,65.09686940963617,-4.131515792934068,26.853146853146853,0.23426737739541684,0.0,1.543417,1.6373732105829841,-0.09395621058297338,0.0,0.0,0.0,0.0,0.0,0.0,0.0,32.41,0.0,f02
40.95955273463988,20.00323873808944,46.0001281279794,64.7597583999915,-28.57346961814155,29.063386944181648,0.23426737739541684,0.0,1.539575,1.6303949836854938,-0.09081998368548355,0.0,0.0,0.0,0.0,0.0,0.0,0.0,32.43,0.0,f02
41.02070471459584,19.001865041473714,45.977972399864235,64.48056324458653,10.440593867341821,30.0,0.38747639758637825,1.0,1.521649,1.6229633617080288,-0.10131436170801827,0.0,0.0,0.0,0.0,0.0,0.0,0.0,32.43,0.0,f02
40.015115438095926,23.01646603459214,45.980421834210624,65.15494121168116,8.240502918568527,29.70773638968481,0.38747639758637825,0.0,1.49988,1.615142590682567,-0.11526259068255612,0.0,0.0,0.0,0.0,0.0,0.0,0.0,32.43,0.0,f02
40.01685202218998,24.01937471355286,45.000387810034475,64.83296777450045,2.026726458310967,28.928571428571423,0.38747639758637825,0.0,1.4986,1.606993021392059,-0.10839302139204732,0.0,0.0,0.0,0.0,0.0,0.0,0.0,32.43,0.0,f02
41.0260005188101,24.021252473995588,42.98301785770346,64.09128734191957,9.453776879641477,27.82608695652174,0.38747639758637825,0.0,1.488356,1.5985708785144364,-0.11021487851442377,0.0,0.0,0.0,0.0,0.0,0.0,0.0,32.43,0.0,f02
40.99953406678048,24.00525604828657,42.998600950655174,64.07880925353228,-17.188766436338422,26.557377049180324,0.38747639758637825,0.0,1.481954,1.5899281888532588,-0.10797418885324528,0.0,0.0,0.0,0.0,0.0,0.0,0.0,32.43,0.0,f02
40.97268401101894,25.01708247480605,43.980144819731976,65.10659251552528,-22.372769351892728,25.250852411105704,0.38747639758637825,0.0,1.479393,1.5811128237941725,-0.10171982379415767,0.0,0.0,0.0,0.0,0.0,0.0,0.0,32.43,0.0,f02
41.005344413156266,25.000401573791088,43.00003978983379,64.46287126105749,3.166880789630887,24.0,0.38747639758637825,0.0,1.474271,1.5721685990735232,-0.09789759907350719,0.0,0.0,0.0,0.0,0.0,0.0,0.0,32.43,0.0,f02
42.99319205545123,24.002767126378945,42.9933033811404,65.3679702030197,1.6542189886312972,22.867225408028233,0.38747639758637825,0.0,1.469149,1.563135426976892,-0.09398642697687466,0.0,0.0,0.0,0.0,0.0,0.0,0.0,32.41,0.0,f02
40.99291897931703,24.021603904078923,42.9771356838275,64.06630200156265,-29.437338765327887,21.891891891891895,0.38747639758637825,0.0,1.466588,1.55404948877915,-0.08746148877913186,0.0,0.0,0.0,0.0,0.0,0.0,0.0,32.41,0.0,f02
41.97236640776768,24.979244554273116,41.99864452417013,64.41683275540403,12.448718870036629,21.0989010989011,0.38747639758637825,0.0,1.464027,1.544943419800358,-0.0809164198003393,0.0,0.0,0.0,0.0,0.0,0.0,0.0,32.41,0.0,f02
41.9984601324918,25.9944532126252,41.99999996340018,64.83503873870578,7.195520904882297,20.506329113924053,0.38747639758637825,0.0,1.455063,1.5358465117974065,-0.08078351179738721,0.0,0.0,0.0,0.0,0.0,0.0,0.0,32.41,0.0,f02
41.999624503766164,26.00634147590552,41.99999999999901,64.84056026453408,-24.712646282235273,20.13203883495146,0.38747639758637825,0.0,1.455063,1.5267849009259542,-0.07172190092593422,0.0,0.0,0.0,0.0,0.0,0.0,0.0,32.41,0.0,f02
41.99984258809299,24.999980795236148,42.0,64.44366390256505,23.427052190089952,20.0,0.6598160258777394,1.0,1.447381,1.5177817371043134,-0.0704007371042922,0.0,0.0,0.0,0.0,0.0,0.0,0.0,32.41,0.0,f02
42.00197393945433,25.027493429674674,42.0,64.45573087152925,4.322934615639078,20.76923076923077,0.6598160258777394,0.0,1.443539,1.5088573551482591,-0.06531835514823672,0.0,0.0,0.0,0.0,0.0,0.0,0.0,32.41,0.0,f02
42.00000005324084,25.000000741466,42.000000000000014,64.44377426521147,-24.560601612271626,22.97872340425532,0.6598160258777394,0.0,1.438417,1.5000294376327927,-0.061612437632768524,0.0,0.0,0.0,0.0,0.0,0.0,0.0,32.41,0.0,f02
42.000000000001435,24.999996814905646,42.000000000000014,64.44377270726329,12.865582971290205,26.666666666666668,0.6598160258777394,0.0,1.433295,1.4913131656402026,-0.05801816564017689,0.0,0.0,0.0,0.0,0.0,0.0,0.0,32.41,0.0,f02
42.0,25.996855991587626,42.00000000000001,64.83699963329076,-9.723753169387622,31.764705882352942,0.6598160258777394,0.0,1.433295,1.4827213780789308,-0.04942637807890388,0.0,0.0,0.0,0.0,0.0,0.0,0.0,32.41,0.0,f02
42.00000000000001,24.99111368367192,42.00000000000004,64.44032714962128,-15.255591532876702,37.24137931034483,0.6598160258777394,0.0,1.424332,1.4742647512044686,-0.0499327512044409,0.0,0.0,0.0,0.0,0.0,0.0,0.0,32.41,0.0,f02
42.00000000000001,25.033821135497085,42.000000001237176,64.45690188605084,17.915437157476486,40.0,0.5185233599407557,1.0,1.421771,1.4659519734398183,-0.04418097343979029,0.0,0.0,0.0,0.0,0.0,0.0,0.0,32.41,0.0,f02
42.00000000000001,25.993656795594557,42.00004729434036,64.83574759601363,-5.2716580033868174,39.22814982973893,0.5185233599407557,0.0,1.417929,1.457789893721141,-0.03986089372111298,0.0,0.0,0.0,0.0,0.0,0.0,0.0,32.43,0.0,f02
42.0,25.999854763067834,41.991861736677144,64.83293067425559,-0.1611753674565129,37.241379310344826,0.5185233599407557,0.0,1.414088,1.4497836704919056,-0.03569567049187769,0.0,0.0,0.0,0.0,0.0,0.0,0.0,32.43,0.0,f02
41.99999999998127,25.98736647171799,41.99999978084884,64.83319518367965,10.876497780035875,34.5945945945946,0.5185233599407557,0.0,1.41921,1.4419369577017662,-0.022726957701738354,0.0,0.0,0.0,0.0,0.0,0.0,0.0,32.43,0.0,f02
41.99999928450397,25.000043582940876,41.99999994993957,64.44379035129919,-10.56318095497119,31.764705882352942,0.5185233599407557,0.0,1.408966,1.4342521367703605,-0.025286136770333003,0.0,0.0,0.0,0.0,0.0,0.0,0.0,32.43,0.0,f02
41.97259519532349,26.03275121998703,41.99808813477163,64.8324169724396,9.50723585363505,29.066442388561818,0.5185233599407557,0.0,1.406405,1.4267305394431486,-0.02032553944312146,0.0,0.0,0.0,0.0,0.0,0.0,0.0,32.41,0.0,f02
42.00058686989865,25.997375755594643,42.00006920320278,64.83763302795148,12.801063909291745,26.666666666666668,0.5185233599407557,0.0,1.407686,1.4193726126180857,-0.011686612618058975,0.0,0.0,0.0,0.0,0.0,0.0,0.0,32.41,0.0,f02
41.004062647987276,26.009780754603028,42.00156165673066,64.20259364034081,-17.221573717917977,24.632929436920886,0.5185233599407557,0.0,1.398722,1.4121780739153686,-0.013456073915342008,0.0,0.0,0.0,0.0,0.0,0.0,0.0,32.41,0.0,f02
41.99999674677928,26.025652667964753,41.993565299039126,64.84438179247046,8.98367684044998,22.97872340425532,0.5185233599407557,0.0,1.39232,1.405146061020545,-0.012826061020518094,0.0,0.0,0.0,0.0,0.0,0.0,0.0,32.41,0.0,f02
41.999996125884515,26.035434074967906,41.99721973034246,64.8506743767941,18.015405817417278,21.694915254237287,0.5185233599407557,0.0,1.389759,1.3982752168294765,-0.008516216829449443,0.0,0.0,0.0,0.0,0.0,0.0,0.0,32.41,0.0,f02
42.993552569470005,24.971970138920025,42.03378109744167,65.1067093970394,-11.355448947446565,20.769230769230766,0.5185233599407557,0.0,1.379515,1.3915637348406853,-0.012048734840657833,0.0,0.0,0.0,0.0,0.0,0.0,0.0,32.41,0.0,f02
41.999524431380166,25.009479725463308,42.000044047353555,64.44717083456882,0.024529287645242634,20.198714202220923,0.5185233599407557,0.0,1.373112,1.3850093892554687,-0.011897389255441062,0.0,0.0,0.0,0.0,0.0,0.0,0.0,32.41,0.0,f02
41.99999998760967,25.002095804853962,40.998051691737494,63.79612085474076,18.604380754626316,20.0,0.6064608271343599,1.0,1.369271,1.3786095345930813,-0.009338534593053567,0.0,0.0,0.0,0.0,0.0,0.0,0.0,32.41,0.0,f02
42.00001505638431,25.999962075299628,41.000001028629725,64.19501053042336,-11.879635276568024,20.290620871862615,0.6064608271343599,0.0,1.364149,1.3723611115284573,-0.00821211152842884,0.0,0.0,0.0,0.0,0.0,0.0,0.0,32.43,0.0,f02
41.9647932500805,25.999829117776525,41.04133221817237,64.1983328203932,-2.9722382776869862,21.0989010989011,0.6064608271343599,0.0,1.361588,1.3662606956758327,-0.00467269567580425,0.0,0.0,0.0,0.0,0.0,0.0,0.0,32.43,0.0,f02
43.036901501716564,26.026252403700283,40.99100286115307,64.88299484928719,15.566334264203903,22.358078602620086,0.6064608271343599,0.0,1.359027,1.3603045802759492,-0.001277580275920745,0.0,0.0,0.0,0.0,0.0,0.0,0.0,32.43,0.0,f02
41.95756389465998,25.002651824940173,41.99294886771161,64.41255716752674,-8.815233286964608,24.0,0.6064608271343599,0.0,1.347503,1.3544888623985885,-0.006985862398560177,0.0,0.0,0.0,0.0,0.0,0.0,0.0,32.43,0.0,f02
42.000029328055305,25.91980770760003,41.966239725883284,64.78428954528074,14.916331381442786,25.902192242833053,0.6064608271343599,0.0,1.343661,1.3488094778757609,-0.005148477875732641,0.0,0.0,0.0,0.0,0.0,0.0,0.0,32.43,0.0,f02
41.96321482645212,24.971098776616323,42.03706482887718,64.43277110376151,9.165268539678005,27.82608695652174,0.6064608271343599,0.0,1.33982,1.343262182061017,-0.0034421820609891705,0.0,0.0,0.0,0.0,0.0,0.0,0.0,32.43,0.0,f02
41.99999901210955,24.0154263351911,41.999330174112465,64.0678105927798,-31.42017093520483,29.369024856596557,0.6064608271343599,0.0,1.333418,1.3378425437029076,-0.004424543702880177,0.0,0.0,0.0,0.0,0.0,0.0,0.0,32.43,0.0,f02
41.99999999997348,24.99064278255449,42.02749141626441,64.45806591441597,20.162858328868722,30.0,0.5076010232803246,1.0,1.324454,1.3325459551496066,-0.008091955149579794,0.0,0.0,0.0,0.0,0.0,0.0,0.0,32.43,0.0,f02
42.00000000000001,24.985097136504898,41.043685823190614,63.81879993288314,3.081581722933171,29.77948317039794,0.5076010232803246,0.0,1.321893,1.3273676102249237,-0.005474610224897085,0.0,0.0,0.0,0.0,0.0,0.0,0.0,32.43,0.0,f02
41.99999999997874,24.998433318169024,41.005827989528925,63.79968336495089,-22.901860556318894,29.185785463657325,0.5076010232803246,0.0,1.324454,1.322302489615166,0.0021515103848600454,0.0,0.0,0.0,0.0,0.0,0.0,0.0,32.43,0.0,f02
41.99999919016352,25.056548170345245,42.03872072992832,64.49096509430971,14.776939295571372,28.331435582289128,0.5076010232803246,0.0,1.327015,1.3173454516027097,0.00966954839731552,0.0,0.0,0.0,0.0,0.0,0.0,0.0,32.43,0.0,f02
41.96900649394646,25.008464730397183,42.03914855502964,64.45239192995317,-12.783809608341095,27.3270847803812,0.5076010232803246,0.0,1.335979,1.312491461908229,0.023487538091795136,0.0,0.0,0.0,0.0,0.0,0.0,0.0,32.43,0.0,f02
42.00968845077732,23.98979757396144,41.9604283119132,64.03906507351763,14.85163776461034,26.26817005114888,0.5076010232803246,0.0,1.337259,1.3077359262154191,0.029523073784604028,0.0,0.0,0.0,0.0,0.0,0.0,0.0,32.41,0.0,f02
42.22684252446893,23.920236763358176,44.046980781363125,65.53945737000866,19.173946751607165,25.229695841111994,0.5076010232803246,0.0,1.337259,1.3030750462204175,0.03418395377960488,0.0,0.0,0.0,0.0,0.0,0.0,0.0,32.41,0.0,f02
36.11260051503231,23.963888486807207,47.96480066575259,64.64526255087702,-32.28126394820989,24.26686676477366,0.5076010232803246,0.0,1.325735,1.2985060834154571,0.0272289165845644,0.0,0.0,0.0,0.0,0.0,0.0,0.0,32.41,0.0,f02
38.027605962590535,24.979414899424455,46.01093688827757,64.70762163223665,-5.96006588974081,23.418859715470166,0.5076010232803246,0.0,1.321893,1.2940274514126757,0.027865548587344646,0.0,0.0,0.0,0.0,0.0,0.0,0.0,32.41,0.0,f02
38.997348087909124,25.950340306532848,44.00866497935772,64.27266847719767,-65.28631341775737,22.7137251269557,0.5076010232803246,0.0,1.307808,1.2896386582723303,0.018169341727688946,0.0,0.0,0.0,0.0,0.0,0.0,0.0,32.43,0.0,f02
40.00298778913048,24.970934044140503,44.00000022554474,64.49640764369806,-68.05076468177404,22.17334989011232,0.5076010232803246,0.0,1.301405,1.285340162974635,0.016064837025382955,0.0,0.0,0.0,0.0,0.0,0.0,0.0,32.43,0.0,f02
40.000190817314,25.98809743740688,43.99973944322286,64.89509646274661,190.48837560215205,21.818181818181817,0.7663490799498395,1.0,1.301405,1.2811332162397076,0.020271783760309733,0.0,0.0,0.0,0.0,0.0,0.0,0.0,32.43,0.0,f02
40.008293790519836,25.99098660102591,44.00282227510688,64.90333831705345,41.978250001090096,21.56764657533166,0.7663490799498395,0.0,1.295003,1.277019774175442,0.01798322582457475,0.0,0.0,0.0,0.0,0.0,0.0,0.0,32.43,0.0,f02
40.988090859439325,26.074719791179486,42.989772430698316,64.86936979910787,5.2040814866104865,21.328107500508843,0.7663490799498395,0.0,1.28732,1.2730024847120371,0.014317515287979473,0.0,0.0,0.0,0.0,0.0,0.0,0.0,32.43,0.0,f02
41.00172696760824,25.08189108274146,42.051008066100465,63.863370988290654,1.1969483184889835,21.10196365722834,0.7663490799498395,0.0,1.280918,1.2690846491036782,0.01183335089633794,0.0,0.0,0.0,0.0,0.0,0.0,0.0,32.43,0.0,f02
41.03429160198999,24.997787701059263,42.964947586011526,64.45687859564015,-29.10137599011454,20.8914144652475,0.7663490799498395,0.0,1.279637,1.2652701400834674,0.014366859916548258,0.0,0.0,0.0,0.0,0.0,0.0,0.0,32.43,0.0,f02
40.99224745272196,26.035159978581092,42.99787689194265,64.86147796304179,-9.575526129937533,20.69849956737796,0.7663490799498395,0.0,1.265552,1.2615633253662952,0.00398867463371986,0.0,0.0,0.0,0.0,0.0,0.0,0.0,32.43,0.0,f02
40.992078950697135,25.996895281930083,42.97123166710479,64.8283568509014,12.89935927269795,20.525140852556607,0.7663490799498395,0.0,1.264271,1.2579689780445376,0.006302021955476728,0.0,0.0,0.0,0.0,0.0,0.0,0.0,32.43,0.0,f02
39.95552782073952,24.96741558249969,43.04379962042379,63.81680601586336,-12.94666446377525,20.373186345806804,0.7663490799498395,0.0,1.261711,1.2544921706638388,0.00721882933617456,0.0,0.0,0.0,0.0,0.0,0.0,0.0,32.43,0.0,f02
39.99999880886246,25.06756212690235,44.01162000909413,64.5399509724016,3.6548309494558704,20.244456051306646,0.7663490799498395,0.0,1.254028,1.2511382138334943,0.002889786166518282,0.0,0.0,0.0,0.0,0.0,0.0,0.0,32.43,0.0,f02
40.00002027411874,25.987179096841622,42.99998679905352,64.2209776012481,16.822339479943945,20.140790204991713,0.7663490799498395,0.0,1.247625,1.2479126178176019,-0.0002876178175907039,0.0,0.0,0.0,0.0,0.0,0.0,0.0,32.43,0.0,f02
39.943391581798544,25.999999656513715,42.999999999646334,64.19092235795644,-3.3388790684112712,20.064100775425022,0.7663490799498395,0.0,1.239942,1.244821003660029,-0.0048790036600195735,0.0,0.0,0.0,0.0,0.0,0.0,0.0,32.43,0.0,f02
39.999824906482004,25.999999999990806,43.0,64.2260538453729,-38.533827404257146,20.01642747084442,0.7663490799498395,0.0,1.236101,1.2418689727880556,-0.005767972788048796,0.0,0.0,0.0,0.0,0.0,0.0,0.0,32.43,0.0,f02
39.9850358165851,26.000000000000004,43.000000000000014,64.21684427978063,21.72388075312974,20.0,0.7041625626139192,1.0,1.23482,1.2390619959221125,-0.004241995922108084,0.0,0.0,0.0,0.0,0.0,0.0,0.0,32.43,0.0,f02
40.03094308340319,25.999999999847667,43.00000000000001,64.24543878080954,4.176734516869688,20.17295053614666,0.7041625626139192,0.0,1.229698,1.2364053576979883,-0.006707357697986428,0.0,0.0,0.0,0.0,0.0,0.0,0.0,32.43,0.0,f02
39.99980447532174,25.999994211162974,42.99999999984619,64.22603877736233,-32.80289314542904,20.651558073654392,0.7041625626139192,0.0,1.223296,1.233904126274345,-0.010608126274345783,0.0,0.0,0.0,0.0,0.0,0.0,0.0,32.43,0.0,f02
39.99999999460797,26.990647953568992,42.999994155205314,64.63354062613178,17.969453498793523,21.386138613861387,0.7041625626139192,0.0,1.218174,1.2315630866996674,-0.013389086699669895,0.0,0.0,0.0,0.0,0.0,0.0,0.0,32.43,0.0,f02
39.99999407689545,26.000086930103084,43.99048486011393,64.89350356355018,-2.602172438068114,22.327718223583464,0.7041625626139192,0.0,1.215613,1.2293866378490583,-0.013773637849062631,0.0,0.0,0.0,0.0,0.0,0.0,0.0,32.43,0.0,f02
40.9894737086073,25.98708786948909,43.00000477873146,64.84185455256569,-60.16338226709519,23.412284223203535,0.7041625626139192,0.0,1.202808,1.2273786802078157,-0.02457068020782193,0.0,0.0,0.0,0.0,0.0,0.0,0.0,32.43,0.0,f02
39.969251654945516,25.99999965429411,43.000000000127955,64.2070172168951,-66.22078322827642,24.545454545454547,0.7041625626139192,0.0,1.200247,1.2255424699219344,-0.025295469921942093,0.0,0.0,0.0,0.0,0.0,0.0,0.0,32.43,0.0,f02
40.0127500522946,25.99999999999074,43.000000000000014,64.23410438970035,-7.801857927916084,25.59017112768758,0.7041625626139192,0.0,1.201528,1.2238804542305972,-0.0223524542306064,0.0,0.0,0.0,0.0,0.0,0.0,0.0,32.43,0.0,f02
40.98676640657694,26.000000000000004,43.00000000001147,64.84531610277098,53.7331321413815,26.365280289330926,0.7041625626139192,0.0,1.197686,1.2223941797066114,-0.024708179706620852,0.0,0.0,0.0,0.0,0.0,0.0,0.0,32.43,0.0,f02
41.049740802569495,26.000000000003222,43.00000043530236,64.8851389564229,133.95974565468353,26.666666666666668,0.6402722684810983,1.0,1.197686,1.2210842823641082,-0.02339828236411796,0.0,0.0,0.0,0.0,0.0,0.0,0.0,32.43,0.0,f02
39.99689208907645,26.000000122320756,43.016531657566425,64.23529698687724,59.080322555694146,26.529358026741964,0.6402722684810983,0.0,1.195125,1.2199504893869741,-0.02482548938698446,0.0,0.0,0.0,0.0,0.0,0.0,0.0,32.43,0.0,f02
40.01787923742238,26.00464509281717,43.00354742092989,64.24155443206887,-41.64717304392481,26.16001965440996,0.6402722684810983,0.0,1.195125,1.2189916110969015,-0.023866611096911995,0.0,0.0,0.0,0.0,0.0,0.0,0.0,32.43,0.0,f02
40.9689505892184,25.986055311176834,43.01254445688295,64.83678711713507,-44.46155216359019,25.626955475330924,0.6402722684810983,0.0,1.192564,1.2182055323296452,-0.025641532329656,0.0,0.0,0.0,0.0,0.0,0.0,0.0,32.43,0.0,f02
40.938222574342404,26.000034499190757,42.01562327049296,64.16582003148949,10.45184453587007,24.997261131543937,0.6402722684810983,0.0,1.188723,1.2175891910590693,-0.028866191059080122,0.0,0.0,0.0,0.0,0.0,0.0,0.0,32.43,0.0,f02
40.0163538920044,26.97374449373631,42.98499576883452,64.62663020822166,-6.935701232652797,24.330870591819636,0.6402722684810983,0.0,1.184881,1.217138519938147,-0.03225751993815759,0.0,0.0,0.0,0.0,0.0,0.0,0.0,32.43,0.0,f02
61.76927074475078,26.234964888833915,29.515432756438365,73.31355237509983,-49.72347249375298,23.678007560595955,0.6402722684810983,0.0,1.187442,1.2168483600256665,-0.029406360025676443,0.0,0.0,0.0,0.0,0.0,0.0,0.0,32.43,0.0,f02
20.186008516183758,21.18317003340967,63.814896521683906,70.20358004085699,18.47270693295667,23.079257279098332,0.6402722684810983,0.0,1.187442,1.2167124048300288,-0.0292704048300382,0.0,0.0,0.0,0.0,0.0,0.0,0.0,32.43,0.0,f02
18.072951562814428,12.73207405147615,57.1103876198203,61.23996784723383,-3.3309767818321636,22.56729070999647,0.6402722684810983,0.0,1.186162,1.216723199284566,-0.030561199284574722,0.0,0.0,0.0,0.0,0.0,0.0,0.0,32.43,0.0,f02
11.990133048524873,14.992351312843214,62.00770405446546,64.9113953825922,-82.45639115687652,22.169477409952112,0.6402722684810983,0.0,1.172077,1.2168721145633634,-0.044795114563370736,0.0,0.0,0.0,0.0,0.0,0.0,0.0,32.45,0.0,f02
7.057757288643917,13.116193603745405,63.940800201278094,65.6526648581465,-207.38408497074653,21.910967830441045,0.6402722684810983,0.0,1.172077,1.2171492013747676,-0.04507220137477375,0.0,0.0,0.0,0.0,0.0,0.0,0.0,32.45,0.0,f02
21.113321051610725,15.851488869065744,52.89706300903803,59.11972006172427,85.1666993274867,21.818181818181817,0.5066621558243181,1.0,1.172077,1.2175429708810088,-0.045465970881014076,0.0,0.0,0.0,0.0,0.0,0.0,0.0,32.45,0.0,f02
23.087474184118566,12.671926188055268,56.710833649615054,62.527816455975604,52.7221152073748,22.202512921212612,0.5066621558243181,0.0,1.172077,1.218040247041357,-0.0459632470413617,0.0,0.0,0.0,0.0,0.0,0.0,0.0,32.45,0.0,f02
28.845475225396026,6.02720703395919,58.91301964770976,65.87209234281677,-35.39775035277705,23.276408667531076,0.5066621558243181,0.0,1.150308,1.2186260664077915,-0.06831806640779578,0.0,0.0,0.0,0.0,0.0,0.0,0.0,32.45,0.0,f02
29.782571862919895,4.9808492522071495,57.67411546897194,65.10079908243453,78.28153477071005,24.96716458673591,0.5066621558243181,0.0,1.184881,1.2192835343328974,-0.03440253433290131,0.0,0.0,0.0,0.0,0.0,0.0,0.0,32.45,0.0,f02
30.988798810655034,4.981012206556378,57.015030770445094,65.08325336124432,72.75120045395363,27.19966969393327,0.5066621558243181,0.0,1.191284,1.2199938365110534,-0.028709836511056977,0.0,0.0,0.0,0.0,0.0,0.0,0.0,32.45,0.0,f02
32.211850715262315,6.2253311665603634,57.01512824188374,65.7805664544943,2.5538564314666172,29.803732571675617,0.5066621558243181,0.0,1.202808,1.2207365895931777,-0.017928589593180513,0.0,0.0,0.0,0.0,0.0,0.0,0.0,32.45,0.0,f02
30.872336252153723,6.997284782081957,58.01605919907597,66.09028873426328,83.28865437873398,32.39503040675657,0.5066621558243181,0.0,1.227137,1.2214903515492213,0.005646648450776004,0.0,0.0,0.0,0.0,0.0,0.0,0.0,32.41,0.0,f02
34.22150076050672,8.939856194350774,45.303959879215924,57.47591603284492,119.93865667191449,34.285714285714285,0.682759356553563,1.0,1.232259,1.222233146067393,0.010025853932605258,0.0,0.0,0.0,0.0,0.0,0.0,0.0,32.41,0.0,f02
37.7239036445319,6.858418121884141,54.16377411139563,66.36147399890095,-2.489493932286016,35.55977297548924,0.682759356553563,0.0,1.279637,1.222943068930363,0.056693931069635946,0.0,0.0,0.0,0.0,0.0,0.0,0.0,32.41,0.0,f02
33.06495964043669,4.039491827400116,55.02747775523035,64.32443049378448,-17.30425472076336,36.840718962734876,0.682759356553563,0.0,1.291162,1.2235990717968446,0.0675629282031551,0.0,0.0,0.0,0.0,0.0,0.0,0.0,32.41,0.0,f02
35.00889418282152,4.999989061842999,54.92051688200352,65.3214033614479,21.983290072439832,38.040077569489334,0.682759356553563,0.0,1.28732,1.2241818204606432,0.06313817953935763,0.0,0.0,0.0,0.0,0.0,0.0,0.0,32.37,0.0,f02
37.13354683512658,6.040064999968989,53.92457604283832,65.75136946984634,-6.9293675646013515,39.04880806094863,0.682759356553563,0.0,1.279637,1.2246742438837268,0.054962756116275026,0.0,0.0,0.0,0.0,0.0,0.0,0.0,32.37,0.0,f02
39.01185730381273,10.983389612297929,52.008951485201514,65.93550555094444,-27.93854492134792,39.74346403593905,0.682759356553563,0.0,1.284759,1.225061619100674,0.059697380899328356,0.0,0.0,0.0,0.0,0.0,0.0,0.0,32.37,0.0,f02
35.993112717977105,10.073301033726606,52.98517269861155,64.84137631749324,88.58387960991642,40.0,0.6859821955553557,1.0,1.28732,1.22533148863912,0.061988511360883146,0.0,0.0,0.0,0.0,0.0,0.0,0.0,32.37,0.0,f02
36.06203952295181,11.983443280868498,52.00000579714634,64.40554487250289,-30.706104297150844,39.24989097252508,0.6859821955553557,0.0,1.279637,1.2254736429344644,0.054163357065539444,0.0,0.0,0.0,0.0,0.0,0.0,0.0,32.41,0.0,f02
36.99999542602922,11.936895682527066,52.00000000015599,64.92679831993827,-18.424688889658416,37.282518641259315,0.6859821955553557,0.0,1.278357,1.2254801010814746,0.0528768989185297,0.0,0.0,0.0,0.0,0.0,0.0,0.0,32.41,0.0,f02
37.00002277035618,11.98971744900217,52.00000003982863,64.93654605579172,47.167661590205924,34.602076124567475,0.6859821955553557,0.0,1.271954,1.2253450048708137,0.04660899512919106,0.0,0.0,0.0,0.0,0.0,0.0,0.0,32.41,0.0,f02
37.98850539961948,10.935076846743193,52.00151016889451,65.32120259140011,39.83709184444089,31.667839549612946,0.6859821955553557,0.0,1.262991,1.2250644508263224,0.03792654917368242,0.0,0.0,0.0,0.0,0.0,0.0,0.0,32.41,0.0,f02
37.99995795772381,12.000332511347205,51.998849233860476,65.51248054239304,-41.7937388527231,28.799999999999997,0.6859821955553557,0.0,1.257869,1.2246362757258618,0.033232724274143775,0.0,0.0,0.0,0.0,0.0,0.0,0.0,32.37,0.0,f02
36.93985099538179,11.016175576158266,51.99999996924956,64.72950419003462,-10.880920329990811,26.178010471204185,0.6859821955553557,0.0,1.252747,1.2240598140699377,0.028687185930068294,0.0,0.0,0.0,0.0,0.0,0.0,0.0,32.37,0.0,f02
36.99999839278835,11.985335598208255,51.99999999999918,64.93572322279881,-8.81197966623507,23.87901300079597,0.6859821955553557,0.0,1.241223,1.2233356642030486,0.017887335796957185,0.0,0.0,0.0,0.0,0.0,0.0,0.0,32.37,0.0,f02
36.99999999995706,10.956660129979333,52.000000000000014,64.75375202411597,-57.02604821567531,21.919142717973696,0.6859821955553557,0.0,1.238662,1.2224654509116415,0.01619654908836419,0.0,0.0,0.0,0.0,0.0,0.0,0.0,32.37,0.0,f02
37.00000000000001,10.998108669612959,52.00000000000001,64.76077820956614,7.2699702956233,20.28397565922921,0.6859821955553557,0.0,1.242503,1.2214516119425725,0.021051388057432736,0.0,0.0,0.0,0.0,0.0,0.0,0.0,32.34,0.0,f02
37.000000000004164,11.98299126448668,52.00000000000001,64.93529148040435,-3.1960218898944763,18.94736842105263,0.6859821955553557,0.0,1.230979,1.2202972816150925,0.010681718384911821,0.0,0.0,0.0,0.0,0.0,0.0,0.0,32.34,0.0,f02
37.00000015760438,12.057298779091761,52.000000000000014,64.94904514703056,-47.959269708236754,17.881978939002583,0.6859821955553557,0.0,1.227137,1.219006213458583,0.008130786541420125,0.0,0.0,0.0,0.0,0.0,0.0,0.0,32.34,0.0,f02
37.00597362196947,11.100570915124369,52.00000000000001,64.78166992561712,14.666516745284842,17.06484641638225,0.6859821955553557,0.0,1.228418,1.217582656321165,0.010835343678837737,0.0,0.0,0.0,0.0,0.0,0.0,0.0,32.34,0.0,f02
36.99968330815929,11.016606676215563,52.00000000004362,64.76374130303974,-0.23301053156178292,16.480498077275225,0.6859821955553557,0.0,1.222016,1.2160312448405302,0.0059847551594719856,0.0,0.0,0.0,0.0,0.0,0.0,0.0,32.37,0.0,f02
35.908911111949216,10.999096068183935,52.000001652960755,64.14382420366695,-39.16712336397843,16.123253314224293,0.6859821955553557,0.0,1.216894,1.214356934634327,0.002537065365674728,0.0,0.0,0.0,0.0,0.0,0.0,0.0,32.37,0.0,f02
35.97481582175423,11.061078900002725,52.06344629728562,64.24279944236216,18.41682996215655,16.0,0.5358954486905156,1.0,1.214333,1.2125649179498366,0.0017680820501650464,0.0,0.0,0.0,0.0,0.0,0.0,0.0,32.37,0.0,f02
37.090958874215026,12.04277716625549,51.99550615088888,64.99461802312494,13.739114098667855,16.487081914680555,0.5358954486905156,0.0,1.213052,1.2106605287317183,0.002391471268283315,0.0,0.0,0.0,0.0,0.0,0.0,0.0,32.37,0.0,f02
36.93154260606337,11.018342690370847,51.9999998799732,64.72513192279438,-20.87833808832486,17.891762660291242,0.5358954486905156,0.0,1.209211,1.2086491887857278,0.0005618112142741598,0.0,0.0,0.0,0.0,0.0,0.0,0.0,32.34,0.0,f02
37.02228526224801,12.004598770829885,51.999999999996795,64.9519822460219,-4.37319582088688,20.25092250922509,0.5358954486905156,0.0,1.205369,1.2065363795845905,-0.0011673795845881935,0.0,0.0,0.0,0.0,0.0,0.0,0.0,32.34,0.0,f02
36.01254560957186,12.000000122819573,52.000000000000014,64.38092453692448,11.629872002245845,23.64837690318874,0.5358954486905156,0.0,1.210491,1.2043276212033043,0.006163378796698957,0.0,0.0,0.0,0.0,0.0,0.0,0.0,32.34,0.0,f02
36.91150711305943,12.000000003462484,52.0,64.88805250152402,5.089110185223448,27.95246179966044,0.5358954486905156,0.0,1.201528,1.2020284856374563,-0.0005004856374525336,0.0,0.0,0.0,0.0,0.0,0.0,0.0,32.34,0.0,f02
37.000024108818494,12.000131063686498,52.000000000000014,64.93847033614824,-73.22434178262557,32.24441833137485,0.5358954486905156,0.0,1.200247,1.1996446198843207,0.000602380115684014,0.0,0.0,0.0,0.0,0.0,0.0,0.0,32.33,0.0,f02
36.99999998843662,11.00205973086599,52.00000000000027,64.76144931566836,43.661325609459865,34.285714285714285,0.6584201518318747,1.0,1.197686,1.19718172669739,0.0005042733026156335,0.0,0.0,0.0,0.0,0.0,0.0,0.0,32.33,0.0,f02
36.9995375247362,11.99999351069314,52.0000000098793,64.93816768533347,12.79973427767916,33.87916431394692,0.6584201518318747,0.0,1.190003,1.1946455211035445,-0.004642521103538067,0.0,0.0,0.0,0.0,0.0,0.0,0.0,32.33,0.0,f02
37.00598300791664,12.018969365342423,52.000374267420455,64.94564902238685,-29.735006034522698,32.822757111597376,0.6584201518318747,0.0,1.190003,1.192041680777549,-0.00203868077754156,0.0,0.0,0.0,0.0,0.0,0.0,0.0,32.33,0.0,f02
37.05228167838315,9.9705740992006,51.94705180009426,64.58157721954129,17.585800139966313,31.380753138075317,0.6584201518318747,0.0,1.187442,1.1893757992149514,-0.0019337992149430078,0.0,0.0,0.0,0.0,0.0,0.0,0.0,32.33,0.0,f02
36.93832530710729,11.987585193722332,52.06184533238934,64.95057978712788,25.308547211095114,29.791459781529298,0.6584201518318747,0.0,1.18104,1.186653365899681,-0.0056133658996721375,0.0,0.0,0.0,0.0,0.0,0.0,0.0,32.33,0.0,f02
36.087595470042075,12.000479304011094,51.95091752511853,64.38341309714069,-7.528816981178944,28.235294117647058,0.6584201518318747,0.0,1.18104,1.1838797518942394,-0.0028397518942302365,0.0,0.0,0.0,0.0,0.0,0.0,0.0,32.33,0.0,f02
36.98699991214241,11.904976370270818,51.99999868958915,64.91353085909596,-50.94928478152424,26.833631484794275,0.6584201518318747,0.0,1.172077,1.1810601762315664,-0.00898317623155677,0.0,0.0,0.0,0.0,0.0,0.0,0.0,32.33,0.0,f02
37.06768700960034,12.000025502812468,51.99999999996468,64.9770269580424,13.154451891052217,25.66295979469632,0.6584201518318747,0.0,1.172077,1.1781996590050166,-0.00612265900500638,0.0,0.0,0.0,0.0,0.0,0.0,0.0,32.31,0.0,f02
37.00000181731909,12.018429378139471,51.99999998713736,64.94184150346544,27.227951805703132,24.772914946325354,0.6584201518318747,0.0,1.172077,1.1753029853678527,-0.003225985367842677,0.0,0.0,0.0,0.0,0.0,0.0,0.0,32.31,0.0,f02
37.00039112587866,11.016630980735567,51.99951283617184,64.7637586682004,-45.69933415868388,24.203307785397335,0.6584201518318747,0.0,1.165674,1.1723747138143072,-0.006700713814297134,0.0,0.0,0.0,0.0,0.0,0.0,0.0,32.31,0.0,f02
36.926661288933076,11.000070495874219,52.00492794261528,64.72319827680334,29.43074557809229,24.0,0.3537084406690274,1.0,1.160552,1.1694191919393802,-0.008867191939370911,0.0,0.0,0.0,0.0,0.0,0.0,0.0,32.31,0.0,f02
37.000179440934026,11.096817737591154,52.00148019612174,64.77890540253267,13.756239391085183,24.0,0.3537084406690274,0.0,1.164394,1.1664405367872326,-0.0020465367872248164,0.0,0.0,0.0,0.0,0.0,0.0,0.0,32.33,0.0,f02
37.02001338723423,10.999973689688689,51.985213875098744,64.76066146978893,-4.551253812280199,24.0,0.3537084406690274,0.0,1.159272,1.1634426376093523,-0.004170637609345959,0.0,0.0,0.0,0.0,0.0,0.0,0.0,32.33,0.0,f02
37.92238602267695,10.974424918679782,51.981327916097115,65.2733009420351,-49.901056699247874,24.0,0.3537084406690274,0.0,1.157991,1.1604292083376473,-0.002438208337642623,0.0,0.0,0.0,0.0,0.0,0.0,0.0,32.33,0.0,f02
37.10874392738357,11.92648429985428,51.021635100336276,64.20675316455944,25.444189105567713,24.0,0.3537084406690274,0.0,1.147748,1.157403816380359,-0.0096558163803562,0.0,0.0,0.0,0.0,0.0,0.0,0.0,32.33,0.0,f02
37.9934326874379,11.99992899015873,50.99734547268574,64.7165239208982,8.369481054061767,24.0,0.3537084406690274,0.0,1.147748,1.154369841829924,-0.006621841829922681,0.0,0.0,0.0,0.0,0.0,0.0,0.0,32.33,0.0,f02
37.09298177961143,11.999971183476225,52.01400201176807,65.00265387649229,-45.85315133881579,24.0,0.3537084406690274,0.0,1.146467,1.1513304188263744,-0.004863418826374245,0.0,0.0,0.0,0.0,0.0,0.0,0.0,32.33,0.0,f02
37.02369847832266,11.01496402993014,50.99010620353413,63.96932555719262,24.084621857463308,24.0,0.3537084406690274,0.0,1.138784,1.1482884199687133,-0.009504419968713415,0.0,0.0,0.0,0.0,0.0,0.0,0.0,32.33,0.0,f02
37.99999579183649,10.898964840950493,51.03150879770027,64.552319903731,18.904592591374122,24.0,0.3537084406690274,0.0,1.136223,1.145246450085133,-0.009023450085133151,0.0,0.0,0.0,0.0,0.0,0.0,0.0,32.33,0.0,f02
38.10901927373236,10.982409408886188,51.000001085150444,64.60581070705206,-62.859274812892224,24.0,0.3537084406690274,0.0,1.136223,1.1422068156946654,-0.005983815694666006,0.0,0.0,0.0,0.0,0.0,0.0,0.0,32.31,0.0,f02
38.107233264742966,9.999707094793326,51.98637245459434,65.22835495444446,29.875391658901346,24.0,0.5153776821138817,1.0,1.137504,1.1391715310960138,-0.0016675310960147208,0.0,0.0,0.0,0.0,0.0,0.0,0.0,32.31,0.0,f02
38.997763233240065,9.973125319343453,50.99970666419488,64.97121551629694,7.7431065726013255,23.879353290158956,0.5153776821138817,0.0,1.131101,1.1361423884576871,-0.0050413884576888755,0.0,0.0,0.0,0.0,0.0,0.0,0.0,32.31,0.0,f02
38.99457702948202,10.123766827568922,50.99999999217252,64.99282800193255,-31.040315821696066,23.549799017418493,0.5153776821138817,0.0,1.134943,1.133121033849491,0.0018219661505073372,0.0,0.0,0.0,0.0,0.0,0.0,0.0,32.31,0.0,f02
37.970900776500116,10.999905082853058,50.999999999980325,64.52741446554779,28.140454883926438,23.06460784742575,0.5153776821138817,0.0,1.12854,1.1301090247313186,-0.0015690247313204023,0.0,0.0,0.0,0.0,0.0,0.0,0.0,32.31,0.0,f02
38.01580734466892,10.045957818283135,50.99999926266456,64.39815836920721,8.07077378354899,22.47761957541137,0.5153776821138817,0.0,1.120857,1.1271078627324123,-0.0062508627324142,0.0,0.0,0.0,0.0,0.0,0.0,0.0,32.31,0.0,f02
38.97959599954002,10.980636172761193,50.97208839616091,65.10097595667787,-32.0344835111424,21.83806171049907,0.5153776821138817,0.0,1.12854,1.12411898335217,0.004421016647828425,0.0,0.0,0.0,0.0,0.0,0.0,0.0,32.31,0.0,f02
38.893653855004615,11.00001046193575,51.00010142171692,65.0747791804246,28.52781466136391,21.18781644297999,0.5153776821138817,0.0,1.118296,1.1211437574545708,-0.0028477574545719784,0.0,0.0,0.0,0.0,0.0,0.0,0.0,32.31,0.0,f02
38.9793377663181,10.048560393757398,50.992433795926544,64.96607301599546,19.839049261545984,20.56073308637161,0.5153776821138817,0.0,1.117016,1.118183525865433,-0.0011675258654333305,0.0,0.0,0.0,0.0,0.0,0.0,0.0,32.31,0.0,f02
38.97942924788767,9.99992953489617,50.99979974629047,64.96440617257807,-49.29845288305067,19.983324490259985,0.5153776821138817,0.0,1.114455,1.1152396029395606,-0.0007846029395601733,0.0,0.0,0.0,0.0,0.0,0.0,0.0,32.31,0.0,f02
38.94784238336542,9.988543614331615,51.19402249196694,65.09633913487683,42.66799484834071,19.476230931186056,0.5153776821138817,0.0,1.115735,1.1123132704034175,0.0034217295965841125,0.0,0.0,0.0,0.0,0.0,0.0,0.0,32.31,0.0,f02
36.73373105042434,9.916329204017462,51.039636561470125,63.66117405526163,30.857386323737522,19.056017347307552,0.5153776821138817,0.0,1.109333,1.109405813292631,-7.281329262802665e-05,0.0,0.0,0.0,0.0,0.0,0.0,0.0,32.31,0.0,f02
38.135195882294894,9.077922416501321,52.08187883339365,65.18607169631652,-17.871292522964822,18.737074020113003,0.5153776821138817,0.0,1.105492,1.1065185521660594,-0.0010265521660550755,0.0,0.0,0.0,0.0,0.0,0.0,0.0,32.31,0.0,f02
38.948810856257836,8.939379392418525,51.12452429751344,64.88943947735399,-41.92762350800338,18.533567662565908,0.5153776821138817,0.0,1.106772,1.1036528349361232,0.003119165063882047,0.0,0.0,0.0,0.0,0.0,0.0,0.0,32.31,0.0,f02
38.0845614029775,8.92111106798082,51.02256284753085,64.29091661716022,44.718485741579855,18.46153846153846,0.6862668818956597,1.0,1.097809,1.1008100248782766,-0.0030010248782703954,0.0,0.0,0.0,0.0,0.0,0.0,0.0,32.31,0.0,f02
39.02630525403374,10.061052802589275,50.96665950915663,64.97597761326732,26.934901474461153,18.49034784086636,0.6862668818956597,0.0,1.095248,1.0979914847636827,-0.0027434847636756536,0.0,0.0,0.0,0.0,0.0,0.0,0.0,32.31,0.0,f02
39.96695253002335,9.074561725156745,50.043512213139586,64.68429546394913,-53.50008645303269,18.575175035033883,0.6862668818956597,0.0,1.092687,1.0951985296036184,-0.0025115296036106374,0.0,0.0,0.0,0.0,0.0,0.0,0.0,32.31,0.0,f02
38.01818984223876,8.997883186214118,50.9999928103757,64.24440775173846,34.50465763491324,18.714308365099058,0.6862668818956597,0.0,1.090126,1.0924323845723811,-0.0023063845723725624,0.0,0.0,0.0,0.0,0.0,0.0,0.0,32.31,0.0,f02
39.030262017466676,10.061791931518721,51.00000001509605,65.00462300148408,30.560519817855038,18.906860180639114,0.6862668818956597,0.0,1.088845,1.0896941816221315,-0.0008491816221221307,0.0,0.0,0.0,0.0,0.0,0.0,0.0,32.31,0.0,f02
39.0015879618899,9.886778036015455,51.00057850486179,64.96099792423946,-12.056074795120232,19.152676347749775,0.6862668818956597,0.0,1.088845,1.0869849855873737,0.0018600144126364574,0.0,0.0,0.0,0.0,0.0,0.0,0.0,32.31,0.0,f02
39.153053375361424,10.139573812616085,51.01870756620307,65.10515392379575,-71.10274130528721,19.452273577108016,0.6862668818956597,0.0,1.085004,1.0843058405845314,0.0006981594154798405,0.0,0.0,0.0,0.0,0.0,0.0,0.0,32.31,0.0,f02
38.016103787554506,10.998684534540274,51.968960058796576,65.32203317617453,25.803675303478233,19.806798455233476,0.6862668818956597,0.0,1.078601,1.0816578031047452,-0.0030568031047332285,0.0,0.0,0.0,0.0,0.0,0.0,0.0,32.31,0.0,f02
38.000000429501725,10.999999963966976,51.000037717758474,64.5445883019033,14.40052598369594,20.218003658919333,0.6862668818956597,0.0,1.078601,1.079041925139234,-0.00044092513922095854,0.0,0.0,0.0,0.0,0.0,0.0,0.0,32.31,0.0,f02
37.99999998738109,10.999964114739347,51.85887277689721,65.2253163676262,-41.06216189719781,20.688237892343004,0.6862668818956597,0.0,1.07348,1.0764592147570577,-0.0029792147570433716,0.0,0.0,0.0,0.0,0.0,0.0,0.0,32.31,0.0,f02
37.99952211662794,9.922182284715086,50.91412336967676,64.30133234145211,8.001511610187015,21.220446726775783,0.6862668818956597,0.0,1.072199,1.0739106137712018,-0.001711613771186606,0.0,0.0,0.0,0.0,0.0,0.0,0.0,32.29,0.0,f02
38.0390564667421,10.96446722199517,50.935463781807414,64.51054819957753,30.278505967851203,21.818181818181817,0.6395318872417087,1.0,1.068358,1.0713969863519979,-0.003038986351981331,0.0,0.0,0.0,0.0,0.0,0.0,0.0,32.29,0.0,f02
37.82736026748977,10.10627435421134,52.12660976177835,65.19378353329233,12.363353033346078,23.05826866507603,0.6395318872417087,0.0,1.072199,1.0689191215953342,0.003279878404683305,0.0,0.0,0.0,0.0,0.0,0.0,0.0,32.29,0.0,f02
35.74195566011011,11.846347613754935,52.214741346195765,64.37548104709836,-55.565008971986664,25.476226726453877,0.6395318872417087,0.0,1.060675,1.0664777591659254,-0.005802759165906904,0.0,0.0,0.0,0.0,0.0,0.0,0.0,32.29,0.0,f02
36.849790450301256,11.952358280067385,52.06232553078065,64.89415739771327,30.16477337093816,29.051867533645847,0.6395318872417087,0.0,1.058114,1.0640735830630783,-0.0059595830630593235,0.0,0.0,0.0,0.0,0.0,0.0,0.0,32.31,0.0,f02
36.14887245773354,10.030904938172416,52.001541107601334,64.12113778941925,9.016961797844168,33.54429847677002,0.6395318872417087,0.0,1.056833,1.061707149915719,-0.00487414991569963,0.0,0.0,0.0,0.0,0.0,0.0,0.0,32.31,0.0,f02
37.0100685950566,10.032536473817116,52.000612801506584,64.61006653178339,-76.04587999783094,37.937903053285766,0.6395318872417087,0.0,1.050431,1.059378815859598,-0.008947815859578444,0.0,0.0,0.0,0.0,0.0,0.0,0.0,32.31,0.0,f02
38.186467444907485,9.995429005132474,51.99421434352396,65.280266712981,38.18088488343128,40.0,0.34906462322447734,1.0,1.046589,1.0570886863887352,-0.010499686388714805,0.0,0.0,0.0,0.0,0.0,0.0,0.0,32.31,0.0,f02
37.09006102439388,9.999999878115931,51.99999984572738,64.65038753411481,-12.410405750485324,39.26505831602493,0.34906462322447734,0.0,1.052992,1.0548365739146235,-0.001844573914602722,0.0,0.0,0.0,0.0,0.0,0.0,0.0,32.29,0.0,f02
37.983206864599225,9.999999999996753,51.9999999999959,65.16689346377073,19.555684615933504,37.32685297691373,0.34906462322447734,0.0,1.04915,1.052622017956731,-0.0034720179567096585,0.0,0.0,0.0,0.0,0.0,0.0,0.0,32.29,0.0,f02
37.05851109105997,10.000000000000002,52.000000000000014,64.63229258107913,26.412722668251202,34.66779517562421,0.34906462322447734,0.0,1.04915,1.0504443740716536,-0.0012943740716321785,0.0,0.0,0.0,0.0,0.0,0.0,0.0,32.29,0.0,f02
36.93433291422143,9.999999999998344,52.00000000000002,64.5611721378919,17.510642989467925,31.735537190082646,0.34906462322447734,0.0,1.04915,1.048302895248442,0.0008471047515795404,0.0,0.0,0.0,0.0,0.0,0.0,0.0,32.29,0.0,f02
36.89401298244593,9.999999937336506,52.000000000000014,64.53811426355453,-24.303874738927128,28.848456391595256,0.34906462322447734,0.0,1.046589,1.046196787486583,0.00039221251343847085,0.0,0.0,0.0,0.0,0.0,0.0,0.0,32.27,0.0,f02
36.915056736405475,9.99762979251645,52.00000000000001,64.54977935919106,-18.65736494520083,26.18925831202046,0.34906462322447734,0.0,1.045309,1.0441252548450701,0.0011837451549512696,0.0,0.0,0.0,0.0,0.0,0.0,0.0,32.27,0.0,f02
37.103214550506266,10.001586952199412,51.999999999761314,64.65818023667603,10.73759677272857,23.839363662818897,0.34906462322447734,0.0,1.045309,1.0420875309416793,0.00322146905834192,0.0,0.0,0.0,0.0,0.0,0.0,0.0,32.27,0.0,f02
37.99746143426982,9.964238965003439,51.999990971927176,65.16971838730794,-9.87197264197293,21.818181818181817,0.34906462322447734,0.0,1.04787,1.0400829213417049,0.0077870786583162715,0.0,0.0,0.0,0.0,0.0,0.0,0.0,32.27,0.0,f02
38.03117716952754,12.04807198262947,53.09219526332992,66.4101473667855,-13.289583706089736,20.112938865700958,0.34906462322447734,0.0,1.040187,1.0381108690657475,0.002076130934273241,0.0,0.0,0.0,0.0,0.0,0.0,0.0,32.27,0.0,f02
46.66443059181351,28.25029230421468,44.192625703351126,70.2042467681852,20.71907835769779,18.697504564820452,0.34906462322447734,0.0,1.038906,1.036170988312649,0.002735011687371393,0.0,0.0,0.0,0.0,0.0,0.0,0.0,32.27,0.0,f02
46.5870523697514,11.690551227290015,31.503276870376755,57.441090606563755,-11.404899844508831,17.54300806624313,0.34906462322447734,0.0,1.031224,1.034263023699748,-0.0030390236997283825,0.0,0.0,0.0,0.0,0.0,0.0,0.0,32.27,0.0,f02
56.460863538476346,12.63189270742234,43.1312105554254,72.16436204151407,-30.723393744234233,16.623376623376622,0.34906462322447734,0.0,1.027382,1.0323867564023015,-0.0050047564022821685,0.0,0.0,0.0,0.0,0.0,0.0,0.0,32.27,0.0,f02
42.185959139775306,12.131271848497448,47.08033944718059,64.36910180876139,45.12361292286544,15.918129412526717,0.34906462322447734,0.0,1.026102,1.0305418968741107,-0.004439896874091587,0.0,0.0,0.0,0.0,0.0,0.0,0.0,32.27,0.0,f02
40.13607416756317,10.499246676482924,46.14370134429504,62.05142870320768,0.17196314703784027,15.413948820873056,0.34906462322447734,0.0,1.029943,1.0287280221320192,0.0012149778679995497,0.0,0.0,0.0,0.0,0.0,0.0,0.0,32.27,0.0,f02
40.5868007373332,8.961175410497491,45.43880104506853,61.58145580646025,-163.2282798607185,15.106029872764152,0.34906462322447734,0.0,1.026102,1.026944600334939,-0.0008426003349206743,0.0,0.0,0.0,0.0,0.0,0.0,0.0,32.27,0.0,f02
53.16197778180555,2.1350788627801967,36.140661518120055,64.31875199652742,75.69635253370787,15.0,0.49504707095533673,1.0,1.018419,1.0251910385954326,-0.006772038595414876,0.0,0.0,0.0,0.0,0.0,0.0,0.0,32.27,0.0,f02
52.04033142772828,5.000013760416213,36.00760904053725,63.48026576447467,35.70981230348403,15.143222813054619,0.49504707095533673,0.0,1.024821,1.0234666716542828,0.0013543283457345765,0.0,0.0,0.0,0.0,0.0,0.0,0.0,32.27,0.0,f02
49.99609822261063,5.13324932496481,39.136364649455594,63.699412274308614,-10.028957588331552,15.548789732520385,0.49504707095533673,0.0,1.019699,1.021770740259886,-0.0020717402598690367,0.0,0.0,0.0,0.0,0.0,0.0,0.0,32.27,0.0,f02
49.99999989135889,4.999968244624974,40.00031720537524,64.22635789233098,44.99020930782149,16.19354828333914,0.49504707095533673,0.0,1.02098,1.020102420307966,0.0008775796920505565,0.0,0.0,0.0,0.0,0.0,0.0,0.0,32.27,0.0,f02
49.999824546614356,4.999990423086737,40.00000282594212,64.22602731758019,56.339556496925184,17.062596127302125,0.49504707095533673,0.0,1.023541,1.0184608753149702,0.005080124685045623,0.0,0.0,0.0,0.0,0.0,0.0,0.0,32.27,0.0,f02
48.817950499177144,6.096139972352354,40.10921137002282,63.47522390844943,25.850391895660497,18.13842091257088,0.49504707095533673,0.0,1.015858,1.0168453108963567,-0.0009873108963418756,0.0,0.0,0.0,0.0,0.0,0.0,0.0,32.27,0.0,f02
48.966793587665066,5.983695672607076,40.932055320233445,64.10136223901974,32.51978400986111,19.388013740353255,0.49504707095533673,0.0,1.012016,1.0152549916029694,-0.0032389916029557024,0.0,0.0,0.0,0.0,0.0,0.0,0.0,32.27,0.0,f02
48.965543269092876,4.971502500664735,41.00191474618853,64.0585457031709,18.50568239831989,20.74627785439732,0.49504707095533673,0.0,1.012016,1.0136891835228687,-0.0016731835228563294,0.0,0.0,0.0,0.0,0.0,0.0,0.0,32.27,0.0,f02
49.014166182007045,5.926600624959242,40.86737263482083,64.09099178167297,-36.46250670795866,22.097128410730473,0.49504707095533673,0.0,1.013297,1.012147095918187,0.0011499040818239176,0.0,0.0,0.0,0.0,0.0,0.0,0.0,32.27,0.0,f02
49.95968068184746,6.000034089946995,41.00003246030749,64.90741686940682,35.42129292108,23.260175224133295,0.49504707095533673,0.0,1.010736,1.0106278921186242,0.00010810788138552411,0.0,0.0,0.0,0.0,0.0,0.0,0.0,32.29,0.0,f02
49.00072181718294,6.001758265621369,40.999826050114706,64.17224927508437,36.52690586276572,24.0,0.3490790123031606,1.0,1.010736,1.0091307330836938,0.0016052669163143388,0.0,0.0,0.0,0.0,0.0,0.0,0.0,32.29,0.0,f02
48.04452774513537,6.824131964224304,40.06461304392026,62.928679007883964,-17.570178833836614,24.441601374521554,0.3490790123031606,0.0,1.019699,1.0076548322960461,0.012044167703960384,0.0,0.0,0.0,0.0,0.0,0.0,0.0,32.29,0.0,f02
48.999725711343324,5.099846495318142,41.139849142810355,64.18308765988033,5.611558094205155,24.871364739381224,0.3490790123031606,0.0,1.013297,1.0061995616825574,0.007097438317447747,0.0,0.0,0.0,0.0,0.0,0.0,0.0,32.29,0.0,f02
48.97630436166668,5.99999278849976,40.99996727057455,64.15353161422094,29.592188226947883,25.279868804233434,0.3490790123031606,0.0,1.015858,1.0047645750307668,0.011093424969237367,0.0,0.0,0.0,0.0,0.0,0.0,0.0,32.27,0.0,f02
48.99999936852409,5.999999999807818,40.999985574287685,64.17163512958707,-10.115610384246398,25.656738655945222,0.3490790123031606,0.0,1.012016,1.0033498726386767,0.00866612736132643,0.0,0.0,0.0,0.0,0.0,0.0,0.0,32.27,0.0,f02
49.000000005078114,5.9999999999999964,41.93039257784595,64.77003799774965,-27.738861025607243,25.99081482792891,0.3490790123031606,0.0,1.010736,1.0019558133080921,0.008780186691909867,0.0,0.0,0.0,0.0,0.0,0.0,0.0,32.27,0.0,f02
49.000192611334256,6.000000000000002,41.919604010394394,64.76320001618303,15.021549354603815,26.270424118907904,0.3490790123031606,0.0,1.005614,1.0005830980931465,0.005030901906854116,0.0,0.0,0.0,0.0,0.0,0.0,0.0,32.27,0.0,f02
48.97602831352431,6.000000000000001,42.11086810285656,64.86891830255317,-7.998627186513922,26.483758353864545,0.3490790123031606,0.0,1.005614,0.9992327257954096,0.006381274204589811,0.0,0.0,0.0,0.0,0.0,0.0,0.0,32.29,0.0,f02
48.999999361211245,6.000000000000002,42.118383748226485,64.89189615785295,-52.11037024001676,26.619355991511508,0.3490790123031606,0.0,0.997931,0.9979059323832574,2.5067616740947845e-05,0.0,0.0,0.0,0.0,0.0,0.0,0.0,32.29,0.0,f02
48.99999999858584,6.000000000000001,40.90086446024876,64.10835135500719,33.39600660031499,26.666666666666668,0.7333172431424443,1.0,0.997931,0.996604117346487,0.0013268826535103586,0.0,0.0,0.0,0.0,0.0,0.0,0.0,32.29,0.0,f02
48.999947185622744,6.000000000000001,41.98262741888613,64.80382572955726,9.425791560202073,26.46855077556348,0.7333172431424443,0.0,0.996651,0.9953287691487825,0.0013222308512136436,0.0,0.0,0.0,0.0,0.0,0.0,0.0,32.29,0.0,f02
49.08019032175724,5.999999999973023,41.13779280087392,64.32093810375609,-51.39559526285035,25.93222839718684,0.7333172431424443,0.0,0.996651,0.9940814293989862,0.002569570601008977,0.0,0.0,0.0,0.0,0.0,0.0,0.0,32.27,0.0,f02
